,time,ax,ay,az,wx,wy,wz
14682,12:40:01.376000,-1.8266973000000002,5.168858999999999,-7.771244500000001,-1.9406523999999998,-0.40295690000000006,0.6675833000000001
14683,12:40:01.377000,-2.1139894,5.5016389000000006,-7.2229962,-1.9406523999999998,-0.40295690000000006,0.6675833000000001
14684,12:40:01.378000,-2.0517426,5.764989900000001,-7.4504356,-1.9406523999999998,-0.40295690000000006,0.6675833000000001
14685,12:40:01.378000,-2.1235654,5.848783,-7.7927914000000005,-1.9406523999999998,-0.40295690000000006,0.6675833000000001
14686,12:40:01.379000,-1.8003622,5.7410488,-8.048959700000001,-1.9406523999999998,-0.40295690000000006,0.6675833000000001
14687,12:40:01.384000,-2.3222756,5.9182119,-7.232572599999999,-2.1068075,-0.4335001,0.7237829000000001
14688,12:40:01.395000,-2.1044127999999995,6.4137907,-7.524652499999999,-2.2277589,-0.45671300000000004,0.8019736
14689,12:40:01.417000,-1.6686869,6.160016099999999,-7.665903999999999,-2.2925105,-0.5593383000000001,0.9168162000000001
14690,12:40:01.417000,-1.9799197,7.1703253,-7.1918726,-2.2925105,-0.5593383000000001,0.9168162000000001
14691,12:40:01.419000,-2.1738417,7.026680000000001,-7.2445431,-2.3206103,-0.6448593,0.9033771
14692,12:40:01.429000,-1.7476921000000003,7.203843099999999,-7.108078999999999,-2.3206103,-0.6448593,0.9033771
14693,12:40:01.438000,-1.817121,7.613233999999999,-6.459278599999999,-2.3755879,-0.6998371,0.9143726999999999
14694,12:40:01.449000,-2.1283537999999997,7.6706924,-6.200716000000001,-2.4317877,-0.8244535,1.0841931
14695,12:40:01.458000,-2.1882062,7.756879799999999,-6.0427051,-2.4317877,-0.8244535,1.0841931
14696,12:40:01.468000,-1.9224613000000002,8.2955523,-5.6141615,-2.5441868,-0.8501099,1.0341022
14697,12:40:01.477000,-1.6591103999999999,7.9508018,-6.514342299999999,-2.5441868,-0.8501099,1.0341022
14698,12:40:01.487000,-2.3749461,8.1207829,-5.1377358,-2.5857255,-0.8953139000000001,1.0524281
14699,12:40:01.497000,-2.0637131,8.807889,-4.5511813,-2.5845039,-0.8464447,1.1171799
14700,12:40:01.507000,-1.8841558,8.7647963,-5.3460225999999995,-2.6235991000000003,-0.8183449,1.2332442
14701,12:40:01.517000,-1.7357216,8.5445375,-4.752286,-2.8483973,-0.8244535,1.2552353
14702,12:40:01.527000,-1.7883917,7.967560300000001,-4.8887496,-3.0829694,-0.8146797,1.1843749
14703,12:40:01.537000,-1.5154645,8.6546669,-4.603851799999999,-3.0389872,-0.7853581999999999,1.1232885
14704,12:40:01.545000,-1.26169,8.8366184,-4.6613107000000005,-3.0389872,-0.7853581999999999,1.1232885
14705,12:40:01.556000,-1.163532,9.3298035,-4.1010914,-3.1183996,-0.7462628000000001,1.0951886999999998
14706,12:40:01.571000,-1.091709,9.7104654,-4.1417909,-3.1183996,-0.7462628000000001,1.0951886999999998
14707,12:40:01.576000,-0.6104951999999999,9.5309067,-4.0508150999999994,-3.2234682999999995,-0.7743626,1.1110712
14708,12:40:01.585000,-0.5027608,9.506965600000001,-3.8736517,-3.1660471,-0.8574402,0.9998937
14709,12:40:01.593000,-0.6392244,9.753558199999999,-3.5456602999999998,-3.1660471,-0.8574402,0.9998937
14710,12:40:01.603000,-0.35432659999999994,9.626670800000001,-3.0213525000000003,-2.8435104,-0.930744,0.9717939
14711,12:40:01.615000,-0.5697955,10.038456,-3.1219049,-2.4586656000000002,-1.0578039,0.854508
14712,12:40:01.623000,-0.6871063000000001,10.3688421,-2.1714474999999998,-2.4586656000000002,-1.0578039,0.854508
14713,12:40:01.633000,-0.45248469999999996,10.3113832,-1.9392200000000002,-2.4586656000000002,-1.0956774999999999,0.8459558
14714,12:40:01.644000,-0.1556164,10.210830699999999,-2.0182252,-2.6113817999999998,-1.1176686000000002,0.7921997
14715,12:40:01.653000,0.14125179999999998,10.4382706,-1.6064403,-2.6565859,-1.1714246000000001,0.7641
14716,12:40:01.663000,0.1556164,10.4574232,-0.9959450000000001,-2.6565859,-1.1714246000000001,0.7641
14717,12:40:01.672000,0.047882,10.4885473,-0.5793719,-2.5722866,-1.1921941999999999,0.6944614
14718,12:40:01.684000,-0.1723751,9.9857864,-0.16279870000000002,-2.5722866,-1.1921941999999999,0.6944614
14719,12:40:01.692000,-0.3902381,9.8253813,0.2394099,-2.6064949,-1.170203,0.7079004
14720,12:40:01.705000,-0.28968590000000005,9.796651800000001,0.48600200000000005,-2.6565859,-1.1262207,0.6480357
14721,12:40:01.720000,0.28968590000000005,10.131826400000001,0.5721896,-2.73722,-1.0602473,0.615049
14722,12:40:01.723000,0.6583770999999999,11.0511599,1.2449313,-2.8655016,-1.034591,0.5735102
14723,12:40:01.737000,0.35432659999999994,9.3250151,1.0534035,-3.2124727,-1.0223737,0.6492574000000001
14724,12:40:01.740000,0.36629709999999993,8.410469099999998,0.9887628,-3.2124727,-1.0223737,0.6492574000000001
14725,12:40:01.750000,1.1467732,8.6905785,0.9863687,-3.3212066,-1.0578039,0.5783971
14726,12:40:01.760000,1.3933655,9.0927868,1.4939176,-3.1550515,-1.0675777,0.5637363000000001
14727,12:40:01.769000,1.3454834999999998,9.2795267,1.9272496,-2.9290316,-1.0541387,0.4708849
14728,12:40:01.783000,1.5561641000000002,9.0257521,2.1235654,-2.6455903,-1.0064912,0.3951377
14729,12:40:01.788000,1.6878396,8.637908,2.0780778000000004,-2.6455903,-1.0064912,0.3951377
14730,12:40:01.798000,1.9033084999999998,8.4583511,2.3869164,-2.5661777999999997,-0.9845001,0.35848579999999997
14731,12:40:01.807000,2.3821282000000004,8.724096300000001,2.9758646,-2.3914703999999998,-0.9380744000000001,0.32427740000000005
14732,12:40:01.817000,2.4683158,8.810282699999998,3.4307434999999997,-2.0640471000000002,-0.9258571,0.3022863
14733,12:40:01.829000,2.4946511,8.5900259,3.6533947,-1.7476192,-0.8977573,0.258304
14734,12:40:01.837000,2.4180398,8.321887,3.6893062999999993,-1.2723664,-0.8097928000000001,0.22531729999999997
14735,12:40:01.848000,2.3701577,8.1543007,3.6510005,-1.2723664,-0.8097928000000001,0.22531729999999997
14736,12:40:01.856000,2.1810241,8.1830292,3.7012767999999996,-0.9363908000000001,-0.6827329000000001,0.1446832
14737,12:40:01.866000,1.8554264999999999,8.151906,3.5504483999999996,-0.5393286999999999,-0.5361254,0.0848184
14738,12:40:01.876000,1.8123327,8.216547,3.3708911,-0.163036,-0.3760788,0.034727499999999994
14739,12:40:01.885000,1.4412475,8.1734533,3.2487918999999996,0.5296845,-0.0388815,-0.03857619999999999
14740,12:40:01.897000,1.3670303999999998,8.2093649,3.1961217,0.5296845,-0.0388815,-0.03857619999999999
14741,12:40:01.906000,1.139591,8.2644291,2.9878352,0.9279684000000001,0.11505639999999999,-0.0446849
14742,12:40:01.917000,1.2401432,8.2716112,2.5712618999999997,1.985986,0.3410763,-0.0507935
14743,12:40:01.924000,1.3694245,8.4439859,2.1427186000000003,1.985986,0.3410763,-0.0507935
14744,12:40:01.934000,1.4699767,9.008994099999999,1.7740271,3.3359970999999997,0.4937925,-0.1094366
14745,12:40:01.948000,1.237749,9.796651800000001,1.1683203000000002,3.3359970999999997,0.4937925,-0.1094366
14746,12:40:01.953000,1.1707143,10.131826400000001,1.0438271000000001,3.8918841,0.568318,-0.2242791
14747,12:40:01.967000,0.9600335999999999,9.916357000000001,0.4476965,3.8918841,0.568318,-0.2242791
14748,12:40:01.972000,0.8307523000000001,9.7727108,0.1101285,4.1655517,0.6098568,-0.5492592
14749,12:40:01.981000,0.42854369999999997,9.7056761,-0.3926322,4.1655517,0.6098568,-0.5492592
14750,12:40:01.992000,0.13406949999999998,9.5093603,-0.6368303000000001,4.5455093,0.5988613,-0.6958667
14751,12:40:02.001000,-0.0694289,10.1414022,-0.6918946,5.0366449,0.5964178000000001,-0.7960484999999999
14752,12:40:02.013000,-0.7589293,12.008798599999999,-0.9600335999999999,5.2675514,0.5316662,-0.8632436
14753,12:40:02.021000,0.13406949999999998,11.826848,-1.3909714,4.5833831,0.6220741,-1.0074077
14754,12:40:02.031000,0.3112328,11.2019882,-2.0613191000000004,3.7770414,0.5121185,-1.0122947
14755,12:40:02.041000,-0.45727290000000004,10.6968327,-2.4252219,3.1698418,0.4876839,-0.8583566999999999
14756,12:40:02.050000,-0.12449310000000001,10.0193033,-2.7819428,3.1698418,0.4876839,-0.8583566999999999
14757,12:40:02.062000,-0.18195150000000002,9.186157199999998,-3.2942801,2.8961744,0.5561007,-0.7459576
14758,12:40:02.069000,-0.5314899000000001,9.068845699999999,-3.9694157,2.8961744,0.5561007,-0.7459576
14759,12:40:02.083000,-1.3550598999999999,9.861292800000001,-3.6653652,2.9890258,0.6843823,-0.9108911
14760,12:40:02.089000,-1.8578206000000002,11.0942535,-3.3325856,2.7678928,0.6379566,-0.708084
14761,12:40:02.099000,-0.8451169,11.589832300000001,-3.5983305,2.1655803,0.4999012,-0.6995319000000001
14762,12:40:02.112000,-0.0933698,10.2132254,-3.8353462,2.1655803,0.4999012,-0.6995319000000001
14763,12:40:02.118000,-0.40220859999999997,8.97787,-4.3357129,1.2089661,0.3826151,-0.7239665
14764,12:40:02.135000,-0.0885817,8.688183800000001,-4.2734666,1.1161146999999998,0.4265974,-0.5810241
14765,12:40:02.137000,0.7613234,8.4822922,-4.603851799999999,1.2896003,0.3911672,-0.5162725
14766,12:40:02.148000,0.9791864,8.1734533,-4.802562200000001,1.615802,0.360624,-0.5541461
14767,12:40:02.157000,0.9624277,7.974742900000001,-5.2406821,2.0165293,0.3215287,-0.5248246
14768,12:40:02.167000,1.1731083,7.2636956999999995,-4.7355275,2.4526868,0.22012510000000002,-0.5736938
14769,12:40:02.179000,0.895393,7.7329387999999994,-5.116189,2.7911057,0.2897637,-0.5688068000000001
14770,12:40:02.186000,0.7373824000000001,7.4384651,-5.1233716,2.8595226,0.3826151,-0.4539643
14771,12:40:02.196000,0.047882,7.2229962,-4.7546802,2.8595226,0.3826151,-0.4539643
14772,12:40:02.205000,-0.4141791,7.349883099999999,-4.9605727,2.9584827000000002,0.40460630000000003,-0.3024698
14773,12:40:02.215000,-0.059852499999999996,6.8183932,-5.4920626,2.9328263,0.46935790000000005,-0.2621527
14774,12:40:02.228000,0.019152799999999998,6.3276029000000005,-5.9301825,2.9047264999999998,0.7552426,-0.2255009
14775,12:40:02.234000,0.30883879999999997,5.6452851,-6.2629623,3.2199327999999996,0.8969632,-0.2364964
14776,12:40:02.246000,0.5506426999999999,6.0666461,-5.8870888,3.6194384,1.1022139,-0.1790751
14777,12:40:02.253000,0.2250453,6.684323299999999,-6.8973985,3.8295758,1.3318988999999999,-0.1240973
14778,12:40:02.263000,0.14125179999999998,7.0841379,-6.4066081,3.8295758,1.3318988999999999,-0.1240973
14779,12:40:02.276000,-0.4500906,7.1775079,-7.4384651,3.9358663999999997,1.4161983,-0.13875810000000002
14780,12:40:02.283000,0.15082820000000002,6.052281400000001,-8.0034723,3.8711144999999996,1.5603623,-0.10699310000000001
14781,12:40:02.295000,-0.07421710000000001,6.1576219000000005,-8.1997881,3.6499815000000004,1.6935308,-0.27681350000000005
14782,12:40:02.301000,-0.16279870000000002,6.1815629,-8.688183800000001,3.6499815000000004,1.6935308,-0.27681350000000005
14783,12:40:02.313000,-0.5123371,6.1001635,-8.3721638,3.5155914,1.7387346999999997,-0.1277625
14784,12:40:02.322000,-0.17716329999999997,6.5526485,-8.7552195,3.4801612,1.6153402000000001,-0.13753629999999997
14785,12:40:02.332000,-0.0406997,6.3970318,-9.0568762,3.2028286,1.5188236000000002,-0.1644144
14786,12:40:02.343000,-0.12449310000000001,6.1049519,-9.0856047,2.7422366,1.3526683000000002,-0.098441
14787,12:40:02.351000,-0.007182300000000001,5.8966651,-9.212492,2.7422366,1.3526683000000002,-0.098441
14788,12:40:02.361000,0.0622466,6.0139761,-9.128699300000001,1.5828153,1.0790008999999998,-0.0788933
14789,12:40:02.370000,0.35911479999999996,5.9373651,-9.0065994,1.5828153,1.0790008999999998,-0.0788933
14790,12:40:02.380000,0.45727290000000004,6.1576219000000005,-8.7360659,1.1026757,0.9446107,-0.0862237
14791,12:40:02.394000,0.48839620000000006,6.3371797,-8.707337400000002,0.38307709999999995,0.7564644,0.0102929
14792,12:40:02.399000,0.6751359,6.1264987,-8.8629541,0.38307709999999995,0.7564644,0.0102929
14793,12:40:02.410000,0.8163876999999999,5.7697778,-8.846195199999999,0.10818789999999999,0.6746085,0.0493883
14794,12:40:02.418000,1.0557975,5.48488,-8.8940773,-0.0799584,0.5988613,0.0652708
14795,12:40:02.428000,1.309572,5.2718053,-8.9443531,-0.2326746,0.49623599999999995,0.1324659
14796,12:40:02.437000,1.3813950000000002,5.37954,-9.064058300000001,-0.2607744,0.4876839,0.1324659
14797,12:40:02.447000,1.4244888,5.4729095,-9.0472994,-0.2607744,0.4876839,0.1324659
14798,12:40:02.459000,1.7740271,4.9438138,-9.1023626,-0.3536258,0.4803535,0.056718700000000004
14799,12:40:02.466000,1.4604002,5.3196874,-9.3657141,-0.3536258,0.4803535,0.056718700000000004
14800,12:40:02.476000,1.7548743000000002,4.9629664,-9.643429800000002,-0.5429939,0.4791318,0.0554969
14801,12:40:02.486000,1.649534,4.8265028,-9.4351435,-0.5429939,0.4791318,0.0554969
14802,12:40:02.496000,1.1012853,5.1664648,-9.5811834,-0.4464773,0.5084532,0.0005191
14803,12:40:02.510000,1.2329608,4.828897,-9.8301687,-0.1459318,0.5316662,-0.08011510000000001
14804,12:40:02.516000,1.8338796000000002,4.7115865,-9.415989900000001,-0.039641300000000004,0.4999012,-0.098441
14805,12:40:02.528000,1.0174919,5.4465747,-9.3657141,-0.06651939999999999,0.5817571,-0.07644989999999999
14806,12:40:02.534000,1.3957596,5.4154515,-9.238826800000002,-0.24000500000000002,0.5353313000000001,-0.1485319
14807,12:40:02.544000,1.0174919,4.7020102,-9.2867088,-0.24000500000000002,0.5353313000000001,-0.1485319
14808,12:40:02.554000,0.7134414000000001,4.792985400000001,-9.064058300000001,-0.36217790000000005,0.419267,-0.2536006
14809,12:40:02.563000,0.6607713000000001,5.199982599999999,-8.829436300000001,-0.3291912,0.4412581,-0.23527470000000003
14810,12:40:02.579000,0.4692433,5.7410488,-8.7145185,-0.0604107,0.39971940000000006,-0.0898889
14811,12:40:02.583000,0.5458545,6.0020055999999995,-8.9347773,-0.0604107,0.39971940000000006,-0.0898889
14812,12:40:02.593000,0.557825,5.6357083,-9.001811,-0.048193400000000004,0.3435198,-0.0617891
14813,12:40:02.603000,0.3830558,5.6428905,-8.829436300000001,-0.12882760000000001,0.27143779999999995,-0.0202503
14814,12:40:02.613000,0.6918946,5.5997968,-8.4727154,-0.21312689999999998,0.16759079999999998,0.0750446
14815,12:40:02.625000,0.5506426999999999,5.6381025000000005,-8.1423302,-0.23633979999999996,0.1736994,0.1617874
14816,12:40:02.631000,0.11252260000000001,5.8846945999999996,-7.5629577999999995,-0.23633979999999996,0.1736994,0.1617874
14817,12:40:02.643000,0.009576399999999999,6.1241045,-7.1224441999999994,-0.3487389,0.1468213,0.3768118
14818,12:40:02.651000,0.122099,6.1983213,-6.8064227,-0.5319983,0.0967304,0.42201579999999994
14819,12:40:02.661000,0.0885817,6.456884400000001,-6.643623799999999,-0.7836746,0.04541780000000001,0.4782153
14820,12:40:02.674000,0.4141791,6.7226295,-6.9548569,-1.0353508,0.0099877,0.5319714
14821,12:40:02.680000,0.8499051,7.0147095,-7.804761900000001,-1.2589273,-0.0034514000000000003,0.5674015
14822,12:40:02.691000,1.5872875,7.108078999999999,-8.5134153,-1.4226391,0.0002138,0.5600712
14823,12:40:02.700000,1.9200671999999999,6.9357042,-8.76719,-1.4226391,0.0002138,0.5600712
14824,12:40:02.709000,2.1379302000000004,6.6316533,-8.558902699999999,-1.4568475,0.0185398,0.4501155
14825,12:40:02.721000,2.3222756,6.3826675,-8.2141533,-1.4568475,0.0185398,0.4501155
14826,12:40:02.728000,2.3318522,6.1384692,-7.730544999999999,-1.3786569,0.0185398,0.2912907
14827,12:40:02.740000,2.2935464,5.990035099999999,-7.5150762,-1.3786569,0.0185398,0.2912907
14828,12:40:02.748000,2.3414285,5.927788700000001,-7.539017200000001,-1.31024,0.017318,0.2131
14829,12:40:02.757000,2.4108574000000003,5.8224478,-7.4384651,-1.0634506000000001,0.0637438,0.018844999999999997
14830,12:40:02.767000,2.3222756,5.7314725,-7.232572599999999,-1.0634506000000001,0.0637438,0.018844999999999997
14831,12:40:02.777000,2.2743938,5.4944562999999995,-6.8183932,-0.8985171000000001,0.0845132,-0.09477580000000001
14832,12:40:02.788000,2.4324043,5.4585452000000005,-6.540678,-0.6089673000000001,0.1321606,-0.27437
14833,12:40:02.797000,2.5257742000000003,5.4753041,-6.696293799999999,-0.5087855,0.184695,-0.3476738
14834,12:40:02.808000,2.619144,4.8265028,-6.4856133,-0.2778786,0.27510290000000004,-0.47106850000000006
14835,12:40:02.815000,2.4659216,4.4458413,-6.4449139,-0.2778786,0.27510290000000004,-0.47106850000000006
14836,12:40:02.825000,2.6837847000000004,4.6206107,-6.112133999999999,0.3720815,0.4754666,-0.6360019
14837,12:40:02.839000,2.6909671000000004,4.5655465,-6.0977697,0.5015847999999999,0.5475485999999999,-0.6213411999999999
14838,12:40:02.845000,2.4826806,4.8408675,-5.8870888,0.5015847999999999,0.5475485999999999,-0.6213411999999999
14839,12:40:02.865000,2.0469543999999997,5.2430763,-5.3867221,0.5614494999999999,0.6599478,-0.6677668999999999
14840,12:40:02.867000,2.4683158,4.8600205999999995,-5.6452851,0.5614494999999999,0.6599478,-0.6677668999999999
14841,12:40:02.873000,2.2025707000000003,3.8928044,-5.6285262000000005,0.41362029999999994,0.8285464,-0.9927469000000001
14842,12:40:02.884000,1.8314854999999999,3.8808341,-5.8272367,0.3708597,0.9861495000000001,-0.9780861999999999
14843,12:40:02.893000,1.9296436000000001,4.2519193,-5.8870888,0.374525,1.1083223999999998,-0.9389909
14844,12:40:02.902000,2.2959406,4.2974076,-6.3754849,0.374525,1.1083223999999998,-0.9389909
14845,12:40:02.912000,2.5688679,3.978992,-7.0530152,0.3794119,1.2072825,-0.9634254999999999
14846,12:40:02.921000,3.0620522,3.9981451,-7.771244500000001,0.3708597,1.3111296000000001,-0.9658689
14847,12:40:02.932000,3.2918858999999996,4.5918813,-8.4607449,0.4343897,1.4052026000000002,-0.9047824000000001
14848,12:40:02.942000,3.5600247000000005,4.828897,-8.973081599999999,0.6152055999999999,1.4540718000000001,-0.8021571999999999
14849,12:40:02.952000,3.8975928,5.178435299999999,-9.188550900000001,0.8595514999999999,1.5163801000000001,-0.7239665
14850,12:40:02.961000,4.1130619,5.4633335999999995,-9.0209637,1.1087843000000002,1.5420363000000001,-0.6763191
14851,12:40:02.971000,4.2279787,5.6572556,-9.107152000000001,1.3128132,1.4882803,-0.4869509
14852,12:40:02.980000,4.3021955,5.7410488,-9.310649900000001,1.3128132,1.4882803,-0.4869509
14853,12:40:02.990000,4.3045893,5.774566200000001,-9.293891,1.2932655,1.4161983,-0.3989864
14854,12:40:03.003000,4.1800966,6.035522900000001,-9.3345909,1.2749395000000001,1.3196816,-0.3024698
14855,12:40:03.009000,4.0843324999999995,6.3898497,-9.3968382,1.2028575000000001,1.087553,-0.1045496
14856,12:40:03.023000,3.9933567,6.8040285,-9.3681078,1.0586934,0.9409453999999999,-0.0068113
14857,12:40:03.029000,3.9191399,7.07935,-9.317832000000001,1.0586934,0.9409453999999999,-0.0068113
14858,12:40:03.040000,3.5193252999999998,6.9357042,-9.3058624,0.5956579000000001,0.6074134,0.19355229999999998
14859,12:40:03.048000,3.2679447999999995,6.9021864,-9.12391,0.5956579000000001,0.6074134,0.19355229999999998
14860,12:40:03.058000,2.9591060000000002,7.167931599999999,-9.1837626,0.30366459999999995,0.33496770000000003,0.3132818
14861,12:40:03.071000,2.5401387000000004,7.694633500000001,-9.1382751,0.2535737,0.2079078,0.3572641
14862,12:40:03.077000,2.1786296000000003,7.7473035,-9.0616636,0.2535737,0.2079078,0.3572641
14863,12:40:03.087000,1.9392200000000002,7.4432529999999995,-9.1023626,0.23646950000000003,0.08940010000000001,0.3780335
14864,12:40:03.097000,1.5226468,7.0841379,-9.0544806,0.2877822,-0.0950811,0.330386
14865,12:40:03.106000,1.2521136,6.9285220999999995,-9.0544806,0.3488686,-0.15983270000000002,0.2949559
14866,12:40:03.118000,1.1491673999999998,6.823181599999999,-9.250798199999998,0.3659728,-0.2282496,0.27296479999999995
14867,12:40:03.126000,1.1348027,6.8447285,-9.3657141,0.3403165,-0.2966664,0.24975189999999997
14868,12:40:03.139000,1.2209903999999998,6.452096,-9.969026600000001,0.2340261,-0.366305,0.2350911
14869,12:40:03.146000,1.6854455000000002,6.143257599999999,-10.3042011,0.13017910000000002,-0.4579347,0.2192087
14870,12:40:03.156000,1.9679491999999998,6.006794,-10.598674800000001,0.1130748,-0.5434558,0.23020429999999997
14871,12:40:03.165000,2.130748,5.9110298,-10.455028500000001,0.1130748,-0.5434558,0.23020429999999997
14872,12:40:03.174000,2.3725517000000003,5.7410488,-10.320960000000001,0.0874185,-0.7609236,0.3059515
14873,12:40:03.188000,2.5808383999999998,5.5375504,-10.1533728,0.015336500000000001,-0.8928704,0.3328295
14874,12:40:03.193000,2.6598437,4.9964838,-10.1725264,0.015336500000000001,-0.8928704,0.3328295
14875,12:40:03.203000,2.6382967999999996,4.9677548,-9.997755999999999,-0.1007278,-1.0370344999999999,0.3572641
14876,12:40:03.213000,2.8082778,5.1568885,-9.7391939,-0.0689628,-1.3571277,0.35848579999999997
14877,12:40:03.221000,2.9040418,5.539944599999999,-9.3633204,-0.0689628,-1.3571277,0.35848579999999997
14878,12:40:03.235000,2.8178542,5.6764078,-9.317832000000001,0.0776447,-1.5697086,0.3157253
14879,12:40:03.242000,2.9160123,5.5423384,-9.2747393,0.0776447,-1.5697086,0.3157253
14880,12:40:03.252000,2.9231944,5.602191,-9.461478199999998,0.0165582,-1.6992118000000003,0.2424215
14881,12:40:03.261000,2.9064360000000002,5.7218962,-9.5237246,0.0165582,-1.6992118000000003,0.2424215
14882,12:40:03.271000,2.3150935,5.7625957,-9.4973898,-0.0335327,-1.716316,0.21432179999999998
14883,12:40:03.284000,1.7093865000000001,5.4681215,-9.2100983,-0.1019495,-1.6869946,0.11413989999999999
14884,12:40:03.291000,1.2162021,5.427422,-8.3793459,-0.1019495,-1.6869946,0.11413989999999999
14885,12:40:03.300000,0.5697955,6.2414155,-7.5868988,0.1277356,-1.6564511999999998,-0.0165851
14886,12:40:03.310000,0.40220859999999997,6.428154900000001,-7.6802687999999995,0.0495449,-1.6821077000000002,-0.0116982
14887,12:40:03.319000,0.0215469,5.4657273,-8.0537481,0.0495449,-1.6821077000000002,-0.0116982
14888,12:40:03.333000,0.2513804,5.9708824,-8.0561428,-0.2485571,-1.5489389999999998,-0.066676
14889,12:40:03.339000,0.7038651,5.3532052000000006,-8.865347900000002,-0.2485571,-1.5489389999999998,-0.066676
14890,12:40:03.351000,0.7708998,5.2335,-8.989841499999999,-0.3902777,-1.4279878000000001,-0.0202503
14891,12:40:03.357000,0.9696100000000001,5.209559,-8.980263699999998,-0.3902777,-1.4279878000000001,-0.0202503
14892,12:40:03.368000,0.9863687,5.33884,-8.9682941,-0.3792821,-1.3644578,-0.0520153
14893,12:40:03.377000,1.0366447,5.37954,-8.8916826,-0.5539894000000001,-1.292376,-0.0104765
14894,12:40:03.392000,1.2233844999999999,5.1137948,-8.7456427,-0.7042621,-1.2972629,0.018844999999999997
14895,12:40:03.399000,1.1874731,4.8719912,-8.499051099999999,-0.7873398,-1.3082583,0.0579404
14896,12:40:03.406000,1.1707143,4.7283449,-8.1973944,-0.7873398,-1.3082583,0.0579404
14897,12:40:03.416000,1.0773443999999999,4.4913292,-7.9915012999999995,-0.8044439999999999,-1.3485756000000002,0.12635719999999998
14898,12:40:03.426000,0.8427228000000001,4.3333187,-7.754486099999999,-0.8044439999999999,-1.3485756000000002,0.12635719999999998
14899,12:40:03.436000,0.8666638000000001,4.2112193,-8.0729008,-0.7030404,-1.3290278999999998,0.21065660000000003
14900,12:40:03.450000,0.7685057,4.2279787,-8.4391975,-0.6016369,-1.2691631,0.258304
14901,12:40:03.455000,0.8618754999999999,4.3093777,-8.5229921,-0.6016369,-1.2691631,0.258304
14902,12:40:03.467000,0.7230178,4.2998012999999995,-8.4822922,-0.3414085,-1.170203,0.3523772
14903,12:40:03.473000,0.7565352,4.3117719,-8.1806355,-0.3414085,-1.170203,0.3523772
14904,12:40:03.483000,0.9456690000000001,4.3021955,-7.936437599999999,-0.1349362,-1.1201121,0.44034170000000006
14905,12:40:03.493000,1.3694245,4.419506500000001,-7.5342288,-0.0433065,-1.1103382,0.4855457
14906,12:40:03.503000,1.3359071000000002,4.9773316,-7.0362558,0.0092278,-1.0883471000000002,0.5478539000000001
14907,12:40:03.517000,1.2976014999999999,5.1592832,-6.8303633,-0.051858600000000005,-1.0712428,0.5991665
14908,12:40:03.522000,1.2928133999999998,4.9988779999999995,-6.8973985,-0.051858600000000005,-1.0712428,0.5991665
14909,12:40:03.534000,1.0390389000000002,4.7139807000000005,-7.07935,-0.3157522,-1.0663559,0.6688050999999999
14910,12:40:03.541000,0.7302001,4.6182165,-7.3786125,-0.30842179999999997,-1.0162652,0.7103439
14911,12:40:03.550000,0.5051548,4.879172799999999,-7.6156277999999995,-0.30842179999999997,-1.0162652,0.7103439
14912,12:40:03.563000,0.5290958,5.0036664,-7.9651666,0.0092278,-0.8415577,0.7824259
14913,12:40:03.571000,0.4692433,5.8679361,-7.756879799999999,0.0092278,-0.8415577,0.7824259
14914,12:40:03.584000,0.411785,6.2270508,-7.8382797,0.3342079,-0.6668504,0.8410689
14915,12:40:03.590000,0.20110429999999999,6.2916913,-7.8023682,0.3342079,-0.6668504,0.8410689
14916,12:40:03.600000,-0.0790053,6.3778790999999995,-7.3594593999999995,0.2560172,-0.5324601999999999,0.8569514000000001
14917,12:40:03.612000,-0.047882,6.2749329000000005,-7.3810066999999995,0.2560172,-0.5324601999999999,0.8569514000000001
14918,12:40:03.619000,0.1436459,5.9517293,-7.6323872,0.0861968,-0.4408305,0.8068605
14919,12:40:03.631000,0.193922,6.1288929,-8.1590881,0.0923055,-0.3565312,0.8129691
14920,12:40:03.638000,0.0430938,6.686717999999999,-8.2931576,0.0923055,-0.3565312,0.8129691
14921,12:40:03.649000,0.0311233,6.8638811,-8.4559574,0.1240704,-0.217254,0.6956831
14922,12:40:03.658000,-0.045487900000000005,6.5502539,-8.285976400000001,0.1240704,-0.217254,0.6956831
14923,12:40:03.667000,0.1149167,6.0379171,-8.2380943,-0.020093700000000003,-0.2099236,0.5808406
14924,12:40:03.680000,0.1484341,5.8368125,-8.0896597,-0.21923560000000003,-0.2001498,0.43423310000000004
14925,12:40:03.688000,-0.0023940999999999997,5.7985072,-7.7161802999999995,-0.11783199999999999,-0.18426729999999997,0.3548206
14926,12:40:03.699000,-0.1149167,5.5183973,-7.536623,-0.11783199999999999,-0.18426729999999997,0.3548206
14927,12:40:03.707000,-0.3998145,5.7482309,-7.5270467000000005,0.0861968,-0.17571520000000002,0.226539
14928,12:40:03.716000,-0.7134414000000001,6.4975839,-7.809549799999999,0.31710370000000004,-0.1634979,0.0884836
14929,12:40:03.733000,-0.28010959999999996,7.0865326,-8.2045765,0.47348500000000004,-0.0462119,-0.004367800000000001
14930,12:40:03.738000,-0.014364600000000002,7.536623,-7.9915012999999995,0.3623077,-0.0242208,-0.0165851
14931,12:40:03.752000,-0.05745840000000001,7.7281508,-7.7473035,0.1362877,0.0124311,-0.055680499999999994
14932,12:40:03.755000,-0.0694289,7.4576173,-7.5414109,-0.189914,0.04541780000000001,-0.10577139999999999
14933,12:40:03.765000,0.12449310000000001,6.861486900000001,-7.4815583,-0.189914,0.04541780000000001,-0.10577139999999999
14934,12:40:03.774000,0.2537745,6.306056,-7.850249799999999,-0.4806857,0.0405309,-0.1851838
14935,12:40:03.784000,0.28010959999999996,6.006794,-7.936437599999999,-0.6431756999999999,0.1455996,-0.4173124
14936,12:40:03.796000,0.038305599999999995,6.3252090999999995,-7.6635098,-0.5148941,0.19202539999999998,-0.4722902
14937,12:40:03.803000,-0.014364600000000002,6.7513585,-7.2229962,-0.5148941,0.19202539999999998,-0.4722902
14938,12:40:03.815000,-0.18434560000000003,7.335518400000001,-7.002739,-0.5234462000000001,0.184695,-0.4906161
14939,12:40:03.822000,-0.33756790000000003,7.6802687999999995,-6.9596448,-0.5234462000000001,0.184695,-0.4906161
14940,12:40:03.833000,-0.4093909,7.4264946,-7.1894784,-1.1404196000000002,0.2494466,-0.3684432
14941,12:40:03.847000,-0.4548787,7.199055199999999,-7.687450900000001,-1.4690648000000002,0.29587240000000004,-0.351339
14942,12:40:03.851000,-0.4165732,6.938097999999999,-7.9938955,-1.4690648000000002,0.29587240000000004,-0.351339
14943,12:40:03.862000,-0.2465922,6.7202349,-7.9627724,-1.6633198,0.3300808,-0.37943879999999996
14944,12:40:03.871000,-0.3974204,6.753752700000001,-7.804761900000001,-1.6633198,0.3300808,-0.37943879999999996
14945,12:40:03.880000,-0.3734794,7.2277842,-7.649145599999999,-1.5093819,0.3850586,-0.41853409999999996
14946,12:40:03.897000,-0.095764,7.7473035,-7.5270467000000005,-1.0671158,0.4620275,-0.5040551
14947,12:40:03.901000,0.1364636,8.1973944,-7.5007114,-1.0671158,0.4620275,-0.5040551
14948,12:40:03.914000,0.435726,8.2045765,-7.1751142,-0.9693775,0.4950143,-0.6408889
14949,12:40:03.927000,0.339962,8.048959700000001,-6.4257612,-1.0133598,0.47668829999999995,-0.7007536
14950,12:40:03.931000,0.1987102,8.0441723,-5.5447326,-1.0133598,0.47668829999999995,-0.7007536
14951,12:40:03.940000,-0.047882,8.2452765,-4.7570739,-1.0878853000000002,0.4950143,-0.7813876999999999
14952,12:40:03.948000,-0.0215469,8.410469099999998,-4.1633377000000005,-1.1697412,0.5194488,-0.8119310000000001
14953,12:40:03.959000,0.16758689999999998,8.5349617,-4.1800966,-1.2491535,0.5927526,-0.8278135
14954,12:40:03.968000,0.4740316,8.618755300000002,-4.266284,-1.2491535,0.5927526,-0.8278135
14955,12:40:03.978000,0.6799241,8.6283321,-4.6780691,-1.3310094,0.690491,-0.8155962
14956,12:40:03.988000,0.9696100000000001,8.2668228,-4.974937000000001,-1.4629562,0.8603113000000001,-0.7435142
14957,12:40:03.997000,1.431671,8.1997881,-4.4506296999999995,-1.4629562,0.8603113000000001,-0.7435142
14958,12:40:04.009000,1.6878396,8.1255713,-4.0699677,-1.5191557,0.9360586,-0.7606184
14959,12:40:04.016000,1.8961263,7.8909497,-4.2686782,-1.6230028,1.0386839,-0.7178578
14960,12:40:04.027000,1.9104908,7.627598299999999,-4.8911432999999995,-1.7696102999999999,1.1877348,-0.6653235
14961,12:40:04.036000,1.9942843000000001,7.4624062,-5.7338667,-1.8917831999999999,1.3037992,-0.6298933000000001
14962,12:40:04.046000,2.1379302000000004,7.354671499999999,-5.9996114,-1.9162178,1.4479632,-0.6152326
14963,12:40:04.058000,2.1642652,7.3187599,-5.6764078,-1.879566,1.5811316999999998,-0.6115674
14964,12:40:04.066000,2.1092009999999997,7.4288883000000006,-5.1880121,-1.8380271000000001,1.7619476000000003,-0.49672479999999997
14965,12:40:04.077000,2.039772,7.5557756,-4.642157599999999,-1.8319185000000002,1.8572426,-0.38921259999999996
14966,12:40:04.085000,2.1762357000000003,7.953196000000001,-5.0754895,-1.8184793999999997,1.936655,-0.27803520000000004
14967,12:40:04.095000,2.3869164,8.3721638,-6.7848759,-1.7244061999999998,1.9830806,-0.2059532
14968,12:40:04.104000,2.9638944,8.2069702,-7.601263499999999,-1.7244061999999998,1.9830806,-0.2059532
14969,12:40:04.114000,3.1482398999999996,8.6546669,-7.6108398,-1.3358963,1.9549808999999998,-0.2670397
14970,12:40:04.128000,2.813066,9.3058624,-7.5007114,-1.1734062,1.9342115000000002,-0.23160949999999997
14971,12:40:04.133000,2.7460313,9.2891026,-7.1248379,-1.1001025,1.9464288,-0.2401616
14972,12:40:04.143000,2.5329566000000003,9.358532,-7.366642,-1.1001025,1.9464288,-0.2401616
14973,12:40:04.153000,2.1451125,9.1454573,-7.9867134,-1.1196502000000002,2.0490541,-0.3708867
14974,12:40:04.161000,1.9607668999999999,9.068845699999999,-8.76719,-1.1196502000000002,2.0490541,-0.3708867
14975,12:40:04.176000,1.9751314999999998,9.008994099999999,-9.1741858,-1.2076147,1.9513156000000003,-0.6030151999999999
14976,12:40:04.182000,1.5777111000000001,9.0042048,-9.423173,-1.3065748,1.8792335999999998,-0.6885363
14977,12:40:04.192000,1.1180441,9.0377226,-9.128699300000001,-1.3908741000000002,1.8108168000000002,-0.7593966
14978,12:40:04.201000,1.041433,8.8366184,-8.2069702,-1.3908741000000002,1.8108168000000002,-0.7593966
14979,12:40:04.212000,0.7349883,8.7791595,-7.2876363,-1.3896524,1.6874223000000002,-0.9169997999999999
14980,12:40:04.221000,0.5386721999999999,8.999417300000001,-6.7417822,-1.291914,1.6226704,-1.0562768
14981,12:40:04.230000,0.5267016999999999,9.1622162,-6.035522900000001,-1.1074328000000002,1.6043446000000001,-1.0855983
14982,12:40:04.241000,0.5267016999999999,9.171792,-5.6644373,-0.6700537,1.5640275,-1.0953722
14983,12:40:04.249000,0.4165732,9.207703599999999,-5.2837758,-0.5026768,1.5212669,-1.136911
14984,12:40:04.260000,0.2370158,9.066452,-4.828897,-0.402495,1.4504068,-1.1979975
14985,12:40:04.273000,-0.0119705,9.4255667,-4.8600205999999995,-0.37073,1.3648856000000003,-1.222432
14986,12:40:04.279000,0.1747692,9.0305405,-4.9893022,-0.4147123,1.2866950000000001,-1.2578622
14987,12:40:04.292000,-0.0335174,9.080817199999998,-5.1712537,-0.4147123,1.2866950000000001,-1.2578622
14988,12:40:04.298000,-0.09815800000000001,9.104758300000002,-5.1018243,-0.4000515,1.1914001,-1.3006227
14989,12:40:04.308000,-0.5410663,8.963505699999999,-5.0611248,-0.2925393,1.1034355,-1.3470483999999998
14990,12:40:04.317000,-0.7493529000000001,8.8174658,-5.0587306,-0.2766568,1.0521228,-1.3678179
14991,12:40:04.326000,-0.8211759,8.5134153,-5.082671599999999,-0.2766568,1.0521228,-1.3678179
14992,12:40:04.339000,-0.8427228000000001,8.2955523,-5.1497064,-0.1068364,0.9250630999999999,-1.4912125
14993,12:40:04.347000,-0.8499051,7.9915012999999995,-5.144918,-0.1068364,0.9250630999999999,-1.4912125
14994,12:40:04.358000,-0.7924467,7.9172845,-5.2526526,0.207148,0.8737504,-1.5852857
14995,12:40:04.365000,-0.8403287,8.0609303,-5.2335,0.207148,0.8737504,-1.5852857
14996,12:40:04.376000,-0.8810283000000001,7.764061900000001,-5.314899,0.43194620000000006,0.9140674000000001,-1.6390418000000002
14997,12:40:04.390000,-1.1563497999999999,7.3403072,-5.2933525999999995,0.428281,0.9323934000000001,-1.6097202
14998,12:40:04.395000,-1.2521136,6.9859800000000005,-5.310111,0.428281,0.9323934000000001,-1.6097202
14999,12:40:04.408000,-1.1707143,6.9596448,-5.2933525999999995,0.4722633,0.9556063,-1.4289043
15000,12:40:04.414000,-1.2281727,7.395371000000001,-5.5183973,0.4722633,0.9556063,-1.4289043
15001,12:40:04.425000,-1.5010998,7.7616682,-5.4681215,0.4551590999999999,0.9067370000000001,-1.2566403999999998
15002,12:40:04.434000,-1.721357,7.5629577999999995,-5.331657900000001,0.4551590999999999,0.9067370000000001,-1.2566403999999998
15003,12:40:04.443000,-1.8243033,7.3857946,-5.2885642,0.4417201,0.8590897,-1.2016627
15004,12:40:04.456000,-1.9607668999999999,7.505499400000001,-5.1329474,0.5577844,0.7967814000000001,-1.0709376
15005,12:40:04.463000,-2.2672114,7.764061900000001,-5.235894200000001,0.5577844,0.7967814000000001,-1.0709376
15006,12:40:04.475000,-2.5425327,8.1327534,-5.685984599999999,0.7886913000000001,0.6868258,-0.9096693000000001
15007,12:40:04.482000,-2.4635274,8.3649807,-6.1073461,0.7886913000000001,0.6868258,-0.9096693000000001
15008,12:40:04.493000,-2.5090156,8.649879499999999,-6.2797208,0.7386004,0.4730231,-0.7887181999999999
15009,12:40:04.505000,-2.7915192,8.8749237,-6.334785500000001,0.6103187,0.360624,-0.6922015
15010,12:40:04.511000,-2.7196963,8.9706879,-6.239021299999999,0.4270593,0.2421163,-0.5773590000000001
15011,12:40:04.522000,-2.7029376,8.9970226,-6.193533400000001,0.2352478,0.1297171,-0.46618149999999997
15012,12:40:04.530000,-2.5592916,8.7528248,-6.0570698,0.2352478,0.1297171,-0.46618149999999997
15013,12:40:04.541000,-2.47071,8.5948153,-6.112133999999999,-0.12271889999999999,-0.1244026,-0.2572658
15014,12:40:04.549000,-2.3318522,8.4152575,-6.0331292,-0.12271889999999999,-0.1244026,-0.2572658
15015,12:40:04.559000,-2.1882062,8.429621699999998,-5.9708824,-0.2497788,-0.2917795,-0.16319270000000002
15016,12:40:04.572000,-2.2001767000000005,8.451169,-5.9086356,-0.45991629999999994,-0.6350855,-0.0288024
15017,12:40:04.579000,-2.2265117,8.3338575,-5.8296304,-0.45991629999999994,-0.6350855,-0.0288024
15018,12:40:04.590000,-2.252847,8.3697691,-5.5758562000000005,-0.519781,-0.9099746,0.0078495
15019,12:40:04.599000,-2.5736562999999997,8.467927,-5.2478647,-0.519781,-0.9099746,0.0078495
15020,12:40:04.608000,-2.5185918999999997,9.2029161,-4.9988779999999995,-0.5319983,-0.9881653,0.0261754
15021,12:40:04.623000,-2.7939133999999997,9.1622162,-4.6206107,-0.6443974,-1.1017861,-0.03857619999999999
15022,12:40:04.626000,-3.1051458999999997,8.321887,-4.9557843,-0.6443974,-1.1017861,-0.03857619999999999
15023,12:40:04.637000,-2.7316667999999997,7.469587799999999,-4.7403154,-0.7543529999999999,-1.2752716999999998,-0.20228800000000002
15024,12:40:04.647000,-3.5312957999999997,6.763329,-4.869597,-0.7543529999999999,-1.2752716999999998,-0.20228800000000002
15025,12:40:04.657000,-3.1649985000000003,7.649145599999999,-4.3021955,-0.5002333,-1.2899325000000001,-0.2890308
15026,12:40:04.669000,-3.4498963,8.051354400000001,-4.948602200000001,0.252352,-1.264276,-0.2963611
15027,12:40:04.676000,-3.4570785,8.305128100000001,-5.1664648,0.252352,-1.264276,-0.2963611
15028,12:40:04.687000,-3.4858077000000005,9.796651800000001,-5.1018243,0.058097,-1.1983027,-0.19984449999999998
15029,12:40:04.705000,-4.524846599999999,10.3808117,-5.362781,0.058097,-1.1983027,-0.19984449999999998
15030,12:40:04.715000,-5.2119532,7.0961084,-4.464994,-1.134311,-1.2398415,0.0225102
15031,12:40:04.724000,-4.984513300000001,5.4178457,-3.4762315999999998,-1.7329583,-1.3693449,0.1556787
15032,12:40:04.735000,-5.3292642,6.023552400000001,-2.5353506,-1.0891069,-1.7993936999999998,-0.098441
15033,12:40:04.744000,-5.214346900000001,6.638835899999999,-2.2719998,-1.0891069,-1.7993936999999998,-0.098441
15034,12:40:04.754000,-5.4154515,7.0985031,-2.2959406,-0.6065238000000001,-1.8849146,0.005406
15035,12:40:04.765000,-5.539944599999999,7.407341499999999,-2.6526616,-0.2717699,-1.9728792000000002,0.0273971
15036,12:40:04.773000,-5.381934200000001,7.5916872,-2.3701577,0.1643875,-2.1744647,0.15445699999999998
15037,12:40:04.784000,-5.2933525999999995,7.816732400000001,-1.7979681,0.2670128,-2.2868638,0.30106459999999996
15038,12:40:04.792000,-5.4082689,8.1064186,-1.1778966,0.2670128,-2.2868638,0.30106459999999996
15039,12:40:04.802000,-5.4705157,8.005866099999999,-0.6033128000000001,0.26334759999999996,-2.4970012,0.5918361999999999
15040,12:40:04.811000,-5.5686735999999994,7.922072900000001,-0.4381201,0.26334759999999996,-2.4970012,0.5918361999999999
15041,12:40:04.821000,-5.5207915000000005,7.960378599999999,-0.7708998,0.17171789999999998,-2.5886308999999996,0.705457
15042,12:40:04.834000,-5.245470500000001,7.8071561,-1.2425373,-0.037197900000000006,-2.6704867,0.8569514000000001
15043,12:40:04.841000,-4.970149,7.852644000000001,-1.8865498,-0.037197900000000006,-2.6704867,0.8569514000000001
15044,12:40:04.854000,-4.852837999999999,8.0322018,-2.3318522,-0.06774110000000001,-2.5568659,0.8459558
15045,12:40:04.861000,-4.7211623,7.9915012999999995,-2.7580017999999997,-0.06774110000000001,-2.5568659,0.8459558
15046,12:40:04.871000,-4.6182165,7.9867134,-2.9351648999999997,0.011671299999999999,-2.429806,0.7616565
15047,12:40:04.884000,-4.4961176,8.192606,-2.9351648999999997,0.1448398,-2.280755,0.641927
15048,12:40:04.890000,-4.515270200000001,8.3434343,-2.7580017999999997,0.3354296,-2.1182649,0.5026499
15049,12:40:04.903000,-4.5990634,8.6738195,-2.2480588,0.5626713000000001,-1.955775,0.36092929999999995
15050,12:40:04.909000,-4.524846599999999,8.9132299,-1.9392200000000002,0.8045737,-1.8091674,0.2192087
15051,12:40:04.921000,-4.601458099999999,9.272343600000001,-1.6950218999999997,1.1405493,-1.6002517,-0.019028599999999996
15052,12:40:04.928000,-4.6397634000000005,9.4590836,-1.5872875,1.1405493,-1.6002517,-0.019028599999999996
15053,12:40:04.938000,-4.7379217,9.5644236,-1.7381157999999999,1.1747577,-1.526948,-0.10699310000000001
15054,12:40:04.950000,-4.6397634000000005,9.6003361,-1.6543223000000002,1.0428109,-1.4768572,-0.23893989999999998
15055,12:40:04.957000,-4.642157599999999,9.6123056,-1.5944698,1.0428109,-1.4768572,-0.23893989999999998
15056,12:40:04.967000,-4.6613107000000005,9.686524400000001,-1.4939176,0.7825826,-1.4719701,-0.31957399999999997
15057,12:40:04.977000,-4.7403154,9.6530056,-1.333513,0.7825826,-1.4719701,-0.31957399999999997
15058,12:40:04.987000,-4.869597,9.6673708,-1.1515615,0.6518575,-1.4817441,-0.3623345
15059,12:40:05.002000,-4.9773316,9.7296171,-1.0605857,0.4087334,-1.5245044,-0.4380818
15060,12:40:05.006000,-5.144918,9.516543400000002,-0.9624277,0.26334759999999996,-1.5574913000000001,-0.4796206
15061,12:40:05.014000,-5.3220816,9.427961300000002,-1.0893148000000001,0.26334759999999996,-1.5574913000000001,-0.4796206
15062,12:40:05.024000,-5.595008900000001,9.222067800000001,-1.1731083,0.09963580000000001,-1.5904778999999998,-0.5309332
15063,12:40:05.034000,-6.0139761,9.0568762,-1.5202527,-0.0359761,-1.6100256000000002,-0.5907979999999999
15064,12:40:05.043000,-6.1073461,9.3369846,-2.2432703999999997,-0.1324928,-1.5843691999999998,-0.6457758000000001
15065,12:40:05.054000,-5.9038477,9.633853,-2.8657362,-0.1654795,-1.5098438,-0.7019753000000001
15066,12:40:05.066000,-5.9708824,9.9307222,-3.0165646,-0.009098100000000001,-1.4548659,-0.8815696
15067,12:40:05.074000,-6.248597599999999,10.1485853,-2.8106720000000003,-0.009098100000000001,-1.4548659,-0.8815696
15068,12:40:05.085000,-6.4305490999999995,10.158161199999999,-2.5856267999999996,0.0861968,-1.526948,-1.0672723999999998
15069,12:40:05.094000,-6.5191312,9.957057,-2.3893106,0.0861968,-1.526948,-1.0672723999999998
15070,12:40:05.103000,-6.5191312,9.796651800000001,-2.1929946,0.0593188,-1.5941432,-1.2212104
15071,12:40:05.115000,-6.5670128,9.605124499999999,-2.159477,0.061762199999999996,-1.6014736,-1.2761881000000002
15072,12:40:05.122000,-6.5239191,9.346562400000002,-2.1714474999999998,0.061762199999999996,-1.6014736,-1.2761881000000002
15073,12:40:05.132000,-6.5071607,9.3274088,-2.3821282000000004,0.10452269999999998,-1.5758171,-1.3556006
15074,12:40:05.142000,-6.5382833,9.2747393,-2.7316667999999997,0.10452269999999998,-1.5758171,-1.3556006
15075,12:40:05.152000,-6.452096,9.234039300000001,-2.9662883,0.103301,-1.5122871,-1.3055097
15076,12:40:05.163000,-6.3491502,9.0616636,-3.1290869999999997,0.103301,-1.5122871,-1.3055097
15077,12:40:05.171000,-6.1312871,8.7695837,-3.153028,0.0703143,-1.4719701,-1.2358711000000002
15078,12:40:05.182000,-5.987640900000001,8.326675400000001,-3.1793633,0.015336500000000001,-1.3583493,-1.0990374
15079,12:40:05.190000,-5.853571400000001,7.9795308,-2.9040418,0.015336500000000001,-1.3583493,-1.0990374
15080,12:40:05.200000,-5.8392072,7.8789792,-2.5281682,0.0141148,-1.296041,-1.0159597
15081,12:40:05.210000,-5.8248425,7.8430675999999995,-2.2767880000000003,0.03854930000000001,-1.2276242,-0.9060041999999999
15082,12:40:05.219000,-5.5590972999999995,7.8071561,-1.9464022,0.076423,-1.1555421000000001,-0.8033789000000001
15083,12:40:05.233000,-5.3532052000000006,7.831097099999999,-1.4987059,0.07397949999999999,-1.0663559,-0.6250064000000001
15084,12:40:05.238000,-5.381934200000001,7.823914500000001,-1.0007333,0.07397949999999999,-1.0663559,-0.6250064000000001
15085,12:40:05.249000,-5.573462,7.823914500000001,-0.8762401,-0.0750715,-0.9539568000000002,-0.42219929999999994
15086,12:40:05.258000,-5.5686735999999994,7.6036577,-0.7732939,-0.0750715,-0.9539568000000002,-0.42219929999999994
15087,12:40:05.268000,-5.5064268,7.6635098,-0.5721896,-0.20335309999999998,-0.8574402,-0.28780900000000004
15088,12:40:05.280000,-5.602191,7.8837671,-0.45248469999999996,-0.26932649999999997,-0.7694757,-0.1949576
15089,12:40:05.287000,-5.7506251,8.2093649,-0.2992623,-0.26932649999999997,-0.7694757,-0.1949576
15090,12:40:05.300000,-5.8080834999999995,8.451169,-0.0263351,-0.4623597,-0.5776642,0.012736399999999998
15091,12:40:05.306000,-5.757807700000001,8.724096300000001,0.12449310000000001,-0.4623597,-0.5776642,0.012736399999999998
15092,12:40:05.317000,-5.4705157,9.0592699,0.17955739999999998,-0.6077454999999999,-0.4823693,0.12024860000000001
15093,12:40:05.328000,-5.2382879,9.2603741,-0.028729200000000003,-0.7482444,-0.40784380000000003,0.22776079999999999
15094,12:40:05.335000,-5.1497064,9.1358814,-0.4476965,-0.8423176,-0.32843140000000004,0.3059515
15095,12:40:05.348000,-5.0156369000000005,8.834223699999999,-0.46445519999999996,-0.8679739,-0.2196975,0.3462685
15096,12:40:05.355000,-5.1233716,8.9323816,-0.3974204,-0.8423176,-0.1048549,0.3743683
15097,12:40:05.366000,-5.2215295,9.298680300000001,-0.095764,-0.7115925999999999,0.1016174,0.5478539000000001
15098,12:40:05.383000,-4.9797254,9.080817199999998,-0.1268872,-0.7115925999999999,0.1016174,0.5478539000000001
15099,12:40:05.396000,-4.7666507000000005,8.8366184,0.0359115,-0.5991935,0.31297659999999994,0.6187142
15100,12:40:05.403000,-4.611033900000001,8.8868952,-0.3112328,-0.5991935,0.31297659999999994,0.6187142
15101,12:40:05.413000,-4.630187,9.1406689,-0.4261496,-0.5014550999999999,0.40094109999999994,0.628488
15102,12:40:05.423000,-4.3716245,8.8509827,-1.2257784999999999,-0.36217790000000005,0.4864622,0.6407053
15103,12:40:05.432000,-4.1753082,8.937171000000001,-1.3239366000000001,-0.26810470000000003,0.5573224,0.6321532
15104,12:40:05.449000,-4.0125093000000005,9.3058624,-1.4532180000000001,-0.1679229,0.7295863,0.5197541
15105,12:40:05.452000,-3.8281641000000004,9.6841288,-1.2185962,-0.1679229,0.7295863,0.5197541
15106,12:40:05.463000,-3.8161936,10.002545399999999,-1.3766067,-0.1153885,0.9030719000000001,0.43911999999999995
15107,12:40:05.471000,-3.8736517,10.1653433,-1.9631610000000002,-0.1153885,0.9030719000000001,0.43911999999999995
15108,12:40:05.481000,-3.7467644,10.028880099999999,-2.2241178,-0.1679229,1.0032537000000001,0.3743683
15109,12:40:05.493000,-3.7060647000000007,9.8445339,-2.5329566000000003,-0.21801379999999998,1.0582316,0.2741865
15110,12:40:05.500000,-3.6893062999999993,9.9594507,-2.5784442000000003,-0.21801379999999998,1.100992,0.109253
15111,12:40:05.511000,-3.6031184,10.1892843,-2.3869164,-0.21801379999999998,1.100992,0.109253
15112,12:40:05.520000,-3.5241132000000004,10.4741821,-2.3462167000000003,-0.16425770000000003,1.0899966,0.05061
15113,12:40:05.530000,-3.4546845,10.7614737,-2.1690536,-0.1276059,1.0680053,-0.0104765
15114,12:40:05.539000,-3.5408720999999996,11.146924,-2.1403244,-0.1276059,1.0325751,-0.07644989999999999
15115,12:40:05.548000,-3.780282,11.146924,-2.3821282000000004,-0.1544839,1.0008101,-0.13753629999999997
15116,12:40:05.561000,-4.026874100000001,10.660922099999999,-2.5449269,-0.2473353,0.9067370000000001,-0.3036915
15117,12:40:05.568000,-4.2112193,10.150979,-2.5305624,-0.2473353,0.9067370000000001,-0.3036915
15118,12:40:05.578000,-4.2806487,9.7918644,-1.8482443,-0.31697390000000003,0.8199943000000001,-0.3843257
15119,12:40:05.587000,-4.2830424,9.787075999999999,-0.8977870000000001,-0.3487389,0.6526173000000001,-0.4429687
15120,12:40:05.596000,-4.4410529,9.9594507,-0.4141791,-0.3487389,0.6526173000000001,-0.4429687
15121,12:40:05.609000,-4.747498,9.7176466,0.045487900000000005,-0.42570779999999997,0.6294045,-0.45152079999999994
15122,12:40:05.616000,-5.030001599999999,9.0472994,0.7278060000000001,-0.5894196,0.6294045,-0.46984670000000006
15123,12:40:05.628000,-5.4633335999999995,8.6905785,0.751747,-0.9815948,0.7063735,-0.5162725
15124,12:40:05.636000,-5.7003489,8.8007069,0.2537745,-0.9815948,0.7063735,-0.5162725
15125,12:40:05.647000,-5.5279741,8.9395647,-0.16279870000000002,-1.2625926,0.7650164,-0.5297115
15126,12:40:05.655000,-5.1090064,9.2747393,-0.0861876,-1.2625926,0.7650164,-0.5297115
15127,12:40:05.663000,-4.8504438,9.487813000000001,-0.2034984,-1.3346746,0.7601295,-0.5309332
15128,12:40:05.676000,-4.8648086,9.890022300000002,-0.34714429999999996,-1.4287478,0.8505375,-0.5834676
15129,12:40:05.684000,-4.7666507000000005,9.801440199999998,-0.5697955,-1.4287478,0.8505375,-0.5834676
15130,12:40:05.694000,-4.5487876,9.3728971,-0.6128892,-1.5142688,0.9262847,-0.7215229999999999
15131,12:40:05.704000,-4.3021955,8.5924196,-0.8618754999999999,-1.5142688,0.9262847,-0.7215229999999999
15132,12:40:05.713000,-4.043633,7.7903975999999995,-0.9480630999999999,-1.5887944,0.9446107,-0.7813876999999999
15133,12:40:05.725000,-3.9861746,7.2469368,-1.0964973,-1.6987499,0.9287281999999999,-0.8107093000000001
15134,12:40:05.733000,-3.9765980000000005,6.7154469,-1.1994434999999999,-1.6987499,0.9287281999999999,-0.8107093000000001
15135,12:40:05.743000,-4.060391399999999,6.2055039,-1.3143603000000001,-1.6046767,0.9299499,-0.8082658
15136,12:40:05.752000,-4.0723619,5.7913251,-1.4939176,-1.6046767,0.9299499,-0.8082658
15137,12:40:05.761000,-4.0675735,5.2023764,-1.2018377,-1.4947211999999999,0.8835242,-0.8070440999999999
15138,12:40:05.778000,-4.0244799,4.4386592,-1.2999957,-1.2149451,0.7711251,-0.8058224
15139,12:40:05.780000,-3.8449225,3.8473167,-1.0055215,-1.2149451,0.7711251,-0.8058224
15140,12:40:05.791000,-3.9143515,3.5336897000000005,-1.1371969,-1.0854416999999998,0.6709433000000001,-0.8094875
15141,12:40:05.800000,-3.9454749,3.3517382000000007,-1.0150979,-0.913178,0.5817571,-0.798492
15142,12:40:05.810000,-4.060391399999999,3.3541322,-0.7469588,-0.7299185,0.47791000000000006,-0.8351439
15143,12:40:05.820000,-4.139396700000001,3.3158267,-0.8714519000000001,-0.5283331,0.27632470000000003,-0.8314787
15144,12:40:05.829000,-3.9574451,3.0165646,-0.7613234,-0.36339970000000005,0.1321606,-0.8339221
15145,12:40:05.842000,-4.0149035,2.7580017999999997,-0.6655594,-0.1605926,-0.2771187,-0.7862747
15146,12:40:05.849000,-3.9861746,2.6646321,-0.4093909,-0.1605926,-0.2771187,-0.7862747
15147,12:40:05.859000,-4.0627856,2.6335083999999997,-0.1532223,-0.1263841,-0.6155378,-0.7154144
15148,12:40:05.868000,-4.354865599999999,2.7651839,-0.0023940999999999997,-0.1263841,-0.6155378,-0.7154144
15149,12:40:05.878000,-4.7187686,2.9950175,0.2944742,-0.1080582,-0.7621453,-0.6567714
15150,12:40:05.890000,-5.1832242,3.2535803,0.48121379999999997,-0.07140629999999999,-0.8843183000000001,-0.5956849
15151,12:40:05.897000,-5.6093736,3.4810195,0.8522992,-0.048193400000000004,-1.0138216,-0.5345984
15152,12:40:05.908000,-5.764989900000001,3.9071693,1.1228323,-0.056745500000000004,-1.2777152,-0.3953212
15153,12:40:05.916000,-5.7530193,4.3405008,1.2185962,-0.056745500000000004,-1.2777152,-0.3953212
15154,12:40:05.926000,-5.6979551,4.4985113,1.4388534,-0.0836236,-1.4206573999999998,-0.3403434
15155,12:40:05.938000,-5.281382099999999,5.5686735999999994,1.8290915,-0.09339739999999999,-1.558713,-0.3281261
15156,12:40:05.957000,-5.539944599999999,4.776227,1.5441937,-0.3243043,-1.7969501,-0.1289842
15157,12:40:05.966000,-5.5926147,4.8145323,1.2856309,-0.3243043,-1.7969501,-0.1289842
15158,12:40:05.975000,-5.7865367,5.1353421,1.3023897,0.0532101,-1.8311586,-0.292696
15159,12:40:05.989000,-5.2047706,5.2598348,0.9576395000000001,0.2413564,-1.8861365,-0.2083966
15160,12:40:05.994000,-4.606246,5.37954,0.8834224,0.2413564,-1.8861365,-0.2083966
15161,12:40:06.005000,-4.354865599999999,5.403481,0.6703475999999999,0.6799573,-1.9960921000000003,-0.38554740000000004
15162,12:40:06.014000,-4.1034851,5.1951947,0.4692433,0.6799573,-1.9960921000000003,-0.38554740000000004
15163,12:40:06.024000,-3.7898582999999997,4.950995900000001,0.2154689,1.1222233999999998,-2.1084912,-0.5920196999999999
15164,12:40:06.033000,-3.3325856,4.7331328,0.3902381,1.1222233999999998,-2.1084912,-0.5920196999999999
15165,12:40:06.043000,-2.8441892,4.7139807000000005,0.2034984,1.4765248,-2.2550988,-0.7545097
15166,12:40:06.054000,-2.1451125,4.8911432999999995,0.28729190000000004,1.6756668000000001,-2.3320677000000005,-0.8388091000000001
15167,12:40:06.062000,-1.6543223000000002,5.044365900000001,0.4692433,1.6756668000000001,-2.3320677000000005,-0.8388091000000001
15168,12:40:06.073000,-1.4963118,5.1568885,0.509943,2.0214162,-2.3687196,-0.9402126000000001
15169,12:40:06.082000,-1.1970493999999998,5.1880121,0.775688,2.1423674,-2.3418415,-0.9951904
15170,12:40:06.091000,-1.1419852,5.2670169,0.7325941999999999,2.1423674,-2.3418415,-0.9951904
15171,12:40:06.101000,-1.4436415,5.4465747,0.8618754999999999,2.3439528999999997,-2.2343295,-1.0721593
15172,12:40:06.110000,-1.9847078000000002,5.3460225999999995,0.7828703,2.3439528999999997,-2.2343295,-1.0721593
15173,12:40:06.119000,-2.3677638,5.125765299999999,0.7732939,2.4575737,-2.1109347,-1.0526117
15174,12:40:06.129000,-2.5545032,5.1592832,1.0127038000000002,2.4575737,-2.1109347,-1.0526117
15175,12:40:06.139000,-2.6598437,5.4585452000000005,1.2138082000000001,2.4465779999999997,-2.0669525,-0.9817514
15176,12:40:06.149000,-2.7029376,5.7865367,1.5322232,2.3561702,-2.0046442,-0.9121128000000001
15177,12:40:06.159000,-2.8561597,5.573462,1.5082823,2.2596533,-1.9362273,-0.8681306000000001
15178,12:40:06.171000,-3.2128806,4.9533906,1.8626089,2.2010104999999998,-1.8238282,-0.8766825999999999
15179,12:40:06.178000,-3.7563410000000004,4.472176599999999,1.4747648000000002,2.2303319,-1.6503427,-0.8852348
15180,12:40:06.188000,-4.8169265,4.5631518,1.8314854999999999,2.5101080000000002,-1.1995243999999998,-0.8058224
15181,12:40:06.198000,-6.0091882000000005,5.1185832,2.3222756,2.5101080000000002,-1.1995243999999998,-0.8058224
15182,12:40:06.208000,-6.574194900000001,5.6907725,2.449163,2.8314228,-0.9893870000000001,-0.7203013
15183,12:40:06.220000,-6.693900099999999,6.7202349,3.1219049,3.3824229,-0.5568948,-0.4356383
15184,12:40:06.226000,-6.940492599999999,7.536623,3.4858077000000005,3.3824229,-0.5568948,-0.4356383
15185,12:40:06.239000,-7.8215202999999995,7.9196786999999995,3.6629709999999998,3.7318375,-0.019333799999999998,-0.1912924
15186,12:40:06.246000,-8.7647963,7.900525999999999,3.9382925,3.7318375,-0.019333799999999998,-0.1912924
15187,12:40:06.257000,-9.648218199999999,7.8909497,3.636636,3.8808885,0.5377748,-0.14975360000000001
15188,12:40:06.268000,-10.273078,8.408075300000002,3.3134327000000003,3.8808885,0.5377748,-0.14975360000000001
15189,12:40:06.275000,-10.455028500000001,8.9252005,3.0668404,3.9370879999999997,0.8297681,-0.125319
15190,12:40:06.289000,-10.194071800000001,8.606784800000002,2.7005434,4.104465,1.2989123,-0.11676689999999999
15191,12:40:06.295000,-9.890022300000002,7.957984,1.7524803,4.104465,1.2989123,-0.11676689999999999
15192,12:40:06.305000,-9.480630900000001,7.3642473,0.4548787,4.0727,1.7802737000000002,-0.0935541
15193,12:40:06.314000,-9.3633204,7.5916872,-0.9001811,4.0727,1.7802737000000002,-0.0935541
15194,12:40:06.324000,-8.810282699999998,7.8550382,-1.6040461000000001,3.8698928,2.1516792999999996,-0.012919899999999998
15195,12:40:06.339000,-8.0585365,7.9867134,-1.6950218999999997,3.8698928,2.1516792999999996,-0.012919899999999998
15196,12:40:06.343000,-7.5102877999999995,7.926860799999999,-1.5058881000000002,3.6951857000000006,2.2127657000000003,0.0860402
15197,12:40:06.353000,-6.966827400000001,7.2972131,-1.1994434999999999,3.3897531,2.2237612999999996,0.226539
15198,12:40:06.362000,-6.2246566,6.468854900000001,-1.2497194999999999,3.0171256,2.2555263,0.36337270000000005
15199,12:40:06.371000,-5.5519152,6.023552400000001,-1.5896816,2.2364407,2.4522247000000004,0.7262264
15200,12:40:06.381000,-5.1616769,5.927788700000001,-2.0804718,2.2364407,2.4522247000000004,0.7262264
15201,12:40:06.390000,-4.879172799999999,6.1743803,-1.9080968,2.0250814,2.6147148999999996,0.9278117
15202,12:40:06.402000,-4.879172799999999,6.0020055999999995,-1.4173065,2.1081591,2.925034,1.243018
15203,12:40:06.409000,-5.2550468,5.5638857,-1.3191483999999998,2.1081591,2.925034,1.243018
15204,12:40:06.418000,-5.4944562999999995,4.869597,-0.7732939,2.1680238,3.0863023,1.4629292
15205,12:40:06.429000,-5.5423384,4.6445513,-0.1580105,2.1680238,3.187706,1.7304881
15206,12:40:06.439000,-5.1137948,4.1346083,0.023941,2.1460326000000003,3.2255795,2.0053771
15207,12:40:06.450000,-4.0292683,4.2327666,0.0790053,1.7892876,3.2304664,2.8104967999999997
15208,12:40:06.459000,-3.5265076,4.8384733,-0.095764,1.7892876,3.2304664,2.8104967999999997
15209,12:40:06.468000,-2.2432703999999997,4.9079027,0.28968590000000005,1.4374295,3.2426836,3.3187363
15210,12:40:06.478000,-0.8355404000000001,5.4681215,-0.7948408,1.0220415999999999,3.1315063999999997,3.7842152000000002
15211,12:40:06.488000,0.9767923000000001,7.1583557,-1.3023897,0.6628531,3.1095152,4.1629515
15212,12:40:06.499000,3.6270595,11.113406199999998,-0.44530240000000004,-0.18258370000000002,2.8773866000000003,5.0487051
15213,12:40:06.507000,4.752286,15.583189,-0.2920801,-0.18258370000000002,2.8773866000000003,5.0487051
15214,12:40:06.519000,5.906241400000001,19.3084068,-1.9631610000000002,-3.1892598,2.8431783,5.8562684
15215,12:40:06.527000,5.942153,18.894228,-2.130748,-3.1892598,2.8431783,5.8562684
15216,12:40:06.536000,5.0922480000000006,18.2095165,-3.3134327000000003,-5.3028517,2.9445817,6.2325611
15217,12:40:06.550000,4.9390254,13.311188699999999,-7.5749283,-7.399339200000001,2.9812336,7.1195364
15218,12:40:06.570000,7.4432529999999995,8.4631386,-8.2668228,-9.7609425,1.6397747999999999,8.7273321
15219,12:40:06.576000,11.249870300000001,13.890561100000001,-7.3929772,-9.7609425,1.6397747999999999,8.7273321
15220,12:40:06.586000,9.3058624,11.9226122,-6.1576219000000005,-8.456134800000001,1.0069189,8.6638021
15221,12:40:06.594000,9.7368002,11.036794699999998,-6.3826675,-7.646128699999999,0.39483240000000003,8.526969
15222,12:40:06.604000,12.0399227,10.2132254,-4.3716245,-6.4732685,0.1003956,8.159228299999999
15223,12:40:06.616000,12.274543800000002,11.017642,-2.8657362,-3.1550515,-0.9087529000000001,6.558762599999999
15224,12:40:06.623000,12.320032099999999,10.550792699999999,-2.3414285,-3.1550515,-0.9087529000000001,6.558762599999999
15225,12:40:06.633000,12.224267999999999,11.419851300000001,-2.0038607,-0.7885615,-1.1873071000000002,5.387124099999999
15226,12:40:06.643000,12.343973199999999,12.619294199999999,-1.2688723999999998,-0.7885615,-1.1873071000000002,5.387124099999999
15227,12:40:06.653000,11.632926,11.273811300000002,-1.3790008999999999,0.0495449,-1.1042296,4.7799249
15228,12:40:06.665000,10.7399273,11.5706787,-0.5123371,0.8277866,-0.5996553000000001,3.6486031999999997
15229,12:40:06.672000,10.198861099999998,11.5826502,-0.27053309999999997,0.8277866,-0.5996553000000001,3.6486031999999997
15230,12:40:06.682000,9.7104654,11.0224314,-0.0622466,1.8344916,-0.27467529999999996,2.8068316
15231,12:40:06.692000,8.9491405,11.2355051,0.7469588,1.8344916,-0.27467529999999996,2.8068316
15232,12:40:06.701000,8.7719784,11.9369764,1.139591,2.3683875,-0.1732717,2.3694525
15233,12:40:06.712000,8.6355143,12.260180499999999,1.5082823,2.7935493,-0.0828638,1.9870511999999998
15234,12:40:06.720000,8.3386459,12.6815414,1.5346173,3.0232343999999998,-0.009559999999999999,1.5948761
15235,12:40:06.735000,8.307522800000001,12.3176384,1.0390389000000002,2.7801101000000004,0.094287,0.9351421
15236,12:40:06.740000,8.2620354,11.884306,0.9791864,2.7801101000000004,0.094287,0.9351421
15237,12:40:06.749000,8.2069702,11.5012503,0.8738461,2.4465779999999997,0.1517083,0.6663616
15238,12:40:06.759000,8.1136007,11.1541061,0.7349883,2.0605116000000003,0.2140165,0.4537807
15239,12:40:06.769000,8.1040249,10.3161716,-0.0861876,1.1087843000000002,0.3093114,0.18011329999999998
15240,12:40:06.780000,7.7257565999999995,9.169398300000001,-0.4046027,1.1087843000000002,0.3093114,0.18011329999999998
15241,12:40:06.788000,8.0848713,8.4751101,-1.0557975,0.6115404000000001,0.3178635,0.0884836
15242,12:40:06.799000,8.491867999999998,7.9938955,-1.6279871000000001,-0.2778786,0.11872160000000001,-0.039798
15243,12:40:06.807000,8.2787933,7.831097099999999,-1.5729228000000002,-0.2778786,0.11872160000000001,-0.039798
15244,12:40:06.817000,8.4391975,5.7410488,-2.0038607,-1.4947211999999999,-0.131733,-0.15586229999999998
15245,12:40:06.830000,8.240488099999999,5.142523799999999,-1.9966784,-1.4947211999999999,-0.131733,-0.15586229999999998
15246,12:40:06.837000,8.5134153,4.9031138,-1.8650029,-1.6877543999999998,-0.2514624,-0.17418820000000002
15247,12:40:06.848000,8.4320164,5.5040331,-1.5992579,-1.4739517,-0.4347219,-0.15586229999999998
15248,12:40:06.856000,8.582843800000001,5.3867221,-1.8147268,-1.4739517,-0.4347219,-0.15586229999999998
15249,12:40:06.867000,8.453562699999999,5.2119532,-1.9080968,-1.5020514999999999,-0.6155378,-0.40509509999999993
15250,12:40:06.875000,8.5708742,5.5758562000000005,-1.9631610000000002,-1.5020514999999999,-0.6155378,-0.40509509999999993
15251,12:40:06.884000,8.6666374,5.4824858,-1.9248554,-1.3908741000000002,-0.6876199000000001,-0.5236028
15252,12:40:06.897000,8.669032099999999,5.6452851,-1.6615044999999997,-1.1440848,-0.8195665999999999,-0.8217049000000001
15253,12:40:06.905000,8.910836199999999,5.901453500000001,-1.4580061000000002,-1.1440848,-0.8195665999999999,-0.8217049000000001
15254,12:40:06.915000,9.4183836,6.1097398,-1.1036795,-0.9742644,-0.9002008,-1.0746027
15255,12:40:06.925000,9.186157199999998,6.2629623,-1.0964973,-0.9742644,-0.9002008,-1.0746027
15256,12:40:06.934000,9.0927868,6.0762224,-1.1156501,-0.9767078000000001,-0.9160833,-1.1210285
15257,12:40:06.946000,9.0999689,5.9996114,-1.1300146999999998,-1.0304639000000002,-0.8953139000000001,-1.2126582000000001
15258,12:40:06.954000,9.011387800000001,6.1648045,-1.0438271000000001,-1.0304639000000002,-0.8953139000000001,-1.2126582000000001
15259,12:40:06.964000,8.9659004,6.2581739,-1.1946553,-0.9498298000000001,-0.8684358,-1.2761881000000002
15260,12:40:06.973000,9.0209637,6.277327099999999,-1.3215424999999998,-0.9498298000000001,-0.8684358,-1.2761881000000002
15261,12:40:06.982000,8.9946289,6.3180265,-1.4268829,-0.9388341999999998,-0.831784,-1.2884053999999998
15262,12:40:06.996000,8.9970226,6.4137907,-1.3478776000000001,-1.0341291,-0.6973937,-1.2664143
15263,12:40:07.002000,8.6929731,6.600530099999999,-1.3837892,-1.0341291,-0.6973937,-1.2664143
15264,12:40:07.013000,8.5110207,6.564619099999999,-1.2281727,-1.1550803,-0.47748240000000003,-1.2114365
15265,12:40:07.021000,8.2716112,6.5191312,-1.2162021,-1.1550803,-0.47748240000000003,-1.2114365
15266,12:40:07.031000,7.967560300000001,6.5382833,-1.1467732,-1.2369362,-0.2636797,-1.1698977
15267,12:40:07.041000,7.764061900000001,6.3132386,-1.0150979,-1.2369362,-0.2636797,-1.1698977
15268,12:40:07.050000,7.452829400000001,6.1001635,-0.9073634,-1.2051711999999999,-0.17205,-1.1735628999999999
15269,12:40:07.061000,7.1511731,6.0187645,-0.8283582,-1.0658941000000002,0.0063225,-1.1894453999999999
15270,12:40:07.070000,6.7657232,5.966094,-0.8331464,-1.0658941000000002,0.0063225,-1.1894453999999999
15271,12:40:07.081000,6.540678,5.8631482,-0.9217280000000001,-0.8227699,0.0759611,-1.2065495000000002
15272,12:40:07.089000,6.253386,5.8990593,-0.9217280000000001,-0.8227699,0.0759611,-1.2065495000000002
15273,12:40:07.099000,6.267750299999999,5.9517293,-0.9576395000000001,-0.6981535,0.07473930000000001,-1.1796715
15274,12:40:07.112000,6.2605680999999995,6.0905871,-0.9049693000000001,-0.5478808000000001,0.023426699999999998,-1.0941504
15275,12:40:07.118000,6.3156323,6.3132386,-0.9648218000000001,-0.5478808000000001,0.023426699999999998,-1.0941504
15276,12:40:07.128000,6.3826675,6.4999781,-1.2521136,-0.5112289000000001,-0.022999000000000002,-1.0098511000000001
15277,12:40:07.138000,6.370697,6.6555943,-1.4173065,-0.519781,-0.058429199999999994,-0.8937868
15278,12:40:07.148000,6.2653565,6.6603823,-1.745298,-0.6199628,-0.0559857,-0.6885363
15279,12:40:07.164000,6.253386,6.562224400000001,-1.9057026000000001,-0.6663885,-0.041325,-0.6323368
15280,12:40:07.167000,6.200716000000001,6.452096,-2.0661073,-0.6663885,-0.041325,-0.6323368
15281,12:40:07.185000,6.200716000000001,6.3874555,-2.130748,-0.6786058,-0.016890400000000003,-0.5932415
15282,12:40:07.195000,6.095375499999999,6.3012681,-2.1092009999999997,-0.5869762,0.0368657,-0.5565895000000001
15283,12:40:07.205000,5.987640900000001,6.1671987,-2.1929946,-0.5051203,0.07107410000000002,-0.5651417
15284,12:40:07.215000,5.8272367,6.1480455,-2.1882062,-0.4098254,0.0955087,-0.5883545
15285,12:40:07.230000,5.772172,6.092981299999999,-2.0349839,-0.0604107,0.1174999,-0.5944632
15286,12:40:07.234000,5.6596494,6.083405,-1.8554264999999999,-0.0604107,0.1174999,-0.5944632
15287,12:40:07.244000,5.5279741,6.2198687,-1.721357,0.1411746,0.13338239999999998,-0.6066805000000001
15288,12:40:07.254000,5.530367900000001,6.045099700000001,-1.4867353,0.3097733,0.15659520000000002,-0.6152326
15289,12:40:07.264000,5.4489684,6.0546755999999995,-1.0964973,0.4270593,0.1749211,-0.6298933000000001
15290,12:40:07.276000,5.3220816,6.3611207,-1.0079155999999998,0.5321279999999999,0.198134,-0.6323368
15291,12:40:07.282000,5.1664648,6.3180265,-0.6440126,0.6066536,0.2225686,-0.5944632
15292,12:40:07.295000,5.6117672999999995,6.394638099999999,-0.17955739999999998,0.7667001,0.2616639,-0.5199376
15293,12:40:07.303000,5.365175700000001,6.8040285,0.1915279,0.7667001,0.2616639,-0.5199376
15294,12:40:07.312000,5.235894200000001,7.419312,0.35672070000000006,0.8766556999999999,0.3410763,-0.5016117
15295,12:40:07.321000,5.3939047,7.6323872,0.6224656999999999,0.9462943000000001,0.320307,-0.4539643
15296,12:40:07.332000,5.6069794,7.893343400000001,0.8379346,0.9780593000000001,0.2628857,-0.396543
15297,12:40:07.343000,5.774566200000001,8.2716112,1.2736604999999999,1.0232633,0.1761429,-0.27803520000000004
15298,12:40:07.351000,5.6811967,9.2029161,1.3837892,1.0232633,0.1761429,-0.27803520000000004
15299,12:40:07.361000,5.966094,9.4399309,1.9152790000000002,0.9328552,0.080848,-0.11676689999999999
15300,12:40:07.370000,5.8296304,9.782286599999999,2.0349839,0.9328552,0.080848,-0.11676689999999999
15301,12:40:07.380000,5.7003489,9.9953623,2.1786296000000003,0.6616313,0.025870099999999997,0.035949300000000003
15302,12:40:07.392000,5.9924288,9.7080698,1.8793674999999999,0.43927659999999996,-0.0107817,0.056718700000000004
15303,12:40:07.399000,6.085799199999999,9.916357000000001,1.4987059,0.43927659999999996,-0.0107817,0.056718700000000004
15304,12:40:07.409000,6.418578599999999,9.7344065,0.6128892,0.3818553,-0.0181121,0.0970357
15305,12:40:07.418000,6.1839571,10.0767622,0.22743939999999999,0.3073298,0.028313599999999998,0.0799315
15306,12:40:07.428000,6.2078981,9.732010800000001,-0.5362781,0.24257820000000002,0.0771828,0.0628273
15307,12:40:07.442000,5.913424,9.715252900000001,-0.7637175,0.054431799999999995,0.20912960000000003,0.0322841
15308,12:40:07.448000,5.7817483,9.384866699999998,-0.8666638000000001,-0.026202299999999998,0.27143779999999995,-0.017806799999999998
15309,12:40:07.458000,5.7075315,8.865347900000002,-0.8522992,-0.026202299999999998,0.27143779999999995,-0.017806799999999998
15310,12:40:07.467000,5.6716199000000005,8.499051099999999,-0.8786343000000001,-0.0946192,0.31664169999999997,-0.098441
15311,12:40:07.476000,5.5255799,8.1806355,-1.0390389000000002,-0.104393,0.4094932,-0.2193922
15312,12:40:07.487000,5.4824858,7.8694024,-1.1108619,-0.104393,0.4094932,-0.2193922
15313,12:40:07.496000,5.4202394,7.682663000000001,-1.2999957,-0.0750715,0.4265974,-0.2658179
15314,12:40:07.508000,5.334052099999999,7.649145599999999,-1.4005477,0.0238886,0.42904079999999994,-0.3207957
15315,12:40:07.516000,5.2502584,7.706604,-1.5370114,0.0238886,0.42904079999999994,-0.3207957
15316,12:40:07.525000,5.2287116,7.7473035,-1.6902337,0.1155183,0.39605409999999996,-0.3342348
15317,12:40:07.535000,5.235894200000001,7.5988693,-1.5010998,0.1155183,0.39605409999999996,-0.3342348
15318,12:40:07.545000,5.1856179000000004,7.6323872,-1.3766067,0.1692744,0.36428920000000004,-0.35866929999999997
15319,12:40:07.558000,5.209559,7.6204165999999995,-1.2185962,0.20836970000000002,0.3655109,-0.3757736
15320,12:40:07.564000,5.1664648,7.6730865999999995,-1.1012853,0.2535737,0.35451540000000004,-0.3806605
15321,12:40:07.574000,5.116189,7.6635098,-0.9863687,0.3048864,0.3300808,-0.391656
15322,12:40:07.583000,5.1568885,7.6706924,-0.8882107,0.356199,0.3056462,-0.3879909
15323,12:40:07.593000,5.1616769,7.8454614000000005,-0.9241222,0.39895949999999997,0.2775464,-0.3721084
15324,12:40:07.603000,5.1736474,8.0345955,-1.0462211,0.4380549,0.2592205,-0.3342348
15325,12:40:07.612000,5.1233716,8.151906,-1.0366447,0.46126769999999995,0.2421163,-0.2841439
15326,12:40:07.625000,5.0419722,8.3889217,-0.9528513000000001,0.4637112,0.2164599,-0.1668578
15327,12:40:07.632000,5.065913200000001,8.5780563,-0.8044171999999999,0.4637112,0.2164599,-0.1668578
15328,12:40:07.641000,5.1281595,8.6474848,-0.7206236999999999,0.46248950000000005,0.20912960000000003,-0.1033279
15329,12:40:07.651000,5.125765299999999,8.819860499999999,-0.6392244,0.446607,0.1956905,-0.043463199999999994
15330,12:40:07.660000,5.209559,8.9850531,-0.6942885999999999,0.40995509999999996,0.17858629999999998,0.0176233
15331,12:40:07.673000,5.2789874,9.080817199999998,-0.7780821,0.2987777,0.1346041,0.11047470000000001
15332,12:40:07.680000,5.302928400000001,9.2053099,-0.8594815,0.2987777,0.1346041,0.11047470000000001
15333,12:40:07.690000,5.3244753,9.107152000000001,-0.9648218000000001,0.1399529,0.094287,0.1459049
15334,12:40:07.699000,5.312504799999999,9.0568762,-0.9743982,0.1399529,0.094287,0.1459049
15335,12:40:07.709000,5.281382099999999,8.8246479,-1.0581916999999998,0.061762199999999996,0.0735176,0.1385745
15336,12:40:07.728000,5.286169999999999,8.6810017,-1.2329608,-0.0029894,0.05519169999999999,0.12880070000000002
15337,12:40:07.741000,5.334052099999999,8.6833963,-1.2976014999999999,-0.1349362,-0.0010079000000000002,0.13979629999999998
15338,12:40:07.748000,5.3986925999999995,8.587632199999998,-1.3598481000000002,-0.1349362,-0.0010079000000000002,0.13979629999999998
15339,12:40:07.757000,5.4753041,8.5900259,-1.3598481000000002,-0.1691447,-0.0156687,0.1483484
15340,12:40:07.767000,5.499245200000001,8.5469332,-1.3119662,-0.2021314,-0.0291077,0.1617874
15341,12:40:07.776000,5.5686735999999994,8.6355143,-1.2449313,-0.23633979999999996,-0.0388815,0.1764481
15342,12:40:07.788000,5.5686735999999994,8.5493269,-1.0941031,-0.28643070000000004,-0.0572075,0.1947741
15343,12:40:07.796000,5.6069794,8.477503800000001,-1.1252263999999998,-0.3010914,-0.06942469999999999,0.19721760000000002
15344,12:40:07.807000,5.6835904,8.491867999999998,-0.9743982,-0.3010914,-0.06942469999999999,0.19721760000000002
15345,12:40:07.815000,5.8392072,8.554115300000001,-0.8546931999999999,-0.3035349,-0.0828638,0.1911089
15346,12:40:07.825000,5.729078299999999,8.6714258,-0.8331464,-0.3145305,-0.0853072,0.18744370000000002
15347,12:40:07.836000,5.8128719,8.5373564,-0.8666638000000001,-0.3560692,-0.0938593,0.19843929999999999
15348,12:40:07.844000,5.8272367,8.6163607,-0.7804762,-0.3560692,-0.0938593,0.19843929999999999
15349,12:40:07.854000,5.776960400000001,8.661849,-0.7302001,-0.3805039,-0.09630280000000001,0.2192087
15350,12:40:07.863000,5.7218962,8.597209,-0.6464066999999999,-0.4195992,-0.0889724,0.2375346
15351,12:40:07.873000,5.764989900000001,8.604391099999999,-0.6128892,-0.4452555,-0.07797689999999999,0.2436433
15352,12:40:07.883000,5.726684099999999,8.5373564,-0.459667,-0.45991629999999994,-0.08408550000000001,0.2570823
15353,12:40:07.892000,5.7171078,8.451169,-0.5697955,-0.4696901,-0.0889724,0.25586060000000005
15354,12:40:07.903000,5.8583593,8.4368038,-0.4500906,-0.4953464,-0.0877507,0.2534171
15355,12:40:07.911000,5.5614915,8.6522732,-0.5171254,-0.4977899,-0.0743117,0.2790734
15356,12:40:07.921000,5.4896684,8.5493269,-0.5697955,-0.5222244,-0.10607660000000001,0.29739940000000004
15357,12:40:07.931000,5.834418299999999,8.503838499999999,-0.26813909999999996,-0.5222244,-0.10607660000000001,0.29739940000000004
15358,12:40:07.940000,5.8248425,8.398497599999999,-0.4692433,-0.5429939,-0.1500589,0.3071732
15359,12:40:07.952000,5.743443,8.554115300000001,-0.5290958,-0.5930848000000001,-0.17693689999999998,0.3132818
15360,12:40:07.961000,6.059464,8.676214199999999,-0.316021,-0.5930848000000001,-0.17693689999999998,0.3132818
15361,12:40:07.970000,6.1169224,8.5708742,-0.1915279,-0.6016369,-0.1964846,0.3083949
15362,12:40:07.981000,5.848783,8.391316400000001,-0.2944742,-0.6224062,-0.1989281,0.2986211
15363,12:40:07.990000,5.875118700000001,8.0752954,-0.411785,-0.6517278000000001,-0.17571520000000002,0.2656344
15364,12:40:08.001000,5.9206061,7.788003,-0.459667,-0.6639451,-0.07186820000000001,0.1569005
15365,12:40:08.010000,5.8416009,7.7161802999999995,-0.5626131999999999,-0.6639451,-0.07186820000000001,0.1569005
15366,12:40:08.020000,5.9684882,7.701815600000001,-0.35911479999999996,-0.5100071,0.0209832,0.095814
15367,12:40:08.029000,6.143257599999999,7.694633500000001,-0.27053309999999997,-0.5100071,0.0209832,0.095814
15368,12:40:08.038000,5.9493356,7.6204165999999995,-0.13406949999999998,-0.3829473,0.0661872,0.064049
15369,12:40:08.048000,5.934970900000001,7.512682000000001,-0.15082820000000002,-0.2729917,0.0967304,0.037170999999999996
15370,12:40:08.057000,5.843995099999999,7.469587799999999,0.122099,-0.194801,0.11139120000000001,0.012736399999999998
15371,12:40:08.069000,5.7338667,7.3283366999999995,0.3040505,-0.1031713,0.107726,-0.0459066
15372,12:40:08.077000,5.556703099999999,7.115261599999999,0.4476965,-0.1031713,0.107726,-0.0459066
15373,12:40:08.087000,5.4896684,7.0649853,0.4907902,-0.10561469999999999,0.0784045,-0.07034119999999999
15374,12:40:08.096000,5.3460225999999995,6.971615299999999,0.4141791,-0.10561469999999999,0.0784045,-0.07034119999999999
15375,12:40:08.106000,5.1497064,6.9428864,0.3615089,-0.10561469999999999,0.035644,-0.066676
15376,12:40:08.118000,5.0252137,6.820787400000001,0.2154689,-0.1092799,0.017318,-0.058123900000000006
15377,12:40:08.126000,4.8193212,6.7154469,0.1005521,-0.1092799,0.017318,-0.058123900000000006
15378,12:40:08.136000,4.634975,6.629259599999999,-0.0023940999999999997,-0.0897322,-0.0217773,-0.030024099999999998
15379,12:40:08.146000,4.5655465,6.5095544,-0.12928130000000002,-0.0897322,-0.0217773,-0.030024099999999998
15380,12:40:08.155000,4.529635,6.3156323,-0.28010959999999996,-0.06163250000000001,-0.048655300000000005,-0.0153634
15381,12:40:08.168000,4.3716245,6.2725387,-0.42136140000000005,0.06664910000000002,-0.1170722,0.012736399999999998
15382,12:40:08.174000,4.2255845,6.2653565,-0.5219135,0.06664910000000002,-0.1170722,0.012736399999999998
15383,12:40:08.185000,4.0771503,6.2509917999999995,-0.6224656999999999,0.2780083,-0.20503670000000002,-0.0007026
15384,12:40:08.194000,3.7611291,6.152833900000001,-0.5769778,0.2780083,-0.20503670000000002,-0.0007026
15385,12:40:08.203000,3.6294537000000004,5.8104777,-0.5697955,0.4295028,-0.3174358,-0.0617891
15386,12:40:08.222000,3.6055129,5.343628400000001,-0.47642559999999995,0.4295028,-0.3174358,-0.0617891
15387,12:40:08.231000,3.5624189,5.5878267,-0.5171254,0.9536247,-0.48114759999999995,-0.1277625
15388,12:40:08.241000,3.7563410000000004,4.9438138,-0.9241222,0.9536247,-0.48114759999999995,-0.1277625
15389,12:40:08.252000,4.318954,4.8887496,-1.3957596,1.4618641,-0.5642252,-0.4612946
15390,12:40:08.262000,5.097035900000001,5.5231862000000005,-1.4053360000000001,1.4618641,-0.5642252,-0.4612946
15391,12:40:08.270000,5.5255799,6.365908599999999,-2.0325898999999996,1.8173873,-0.6265334,-0.4612946
15392,12:40:08.283000,6.3683023,6.9021864,-2.2911525,2.2315536,-0.6301985999999999,-0.17174479999999998
15393,12:40:08.290000,6.9548569,7.395371000000001,-3.1554222000000003,2.2315536,-0.6301985999999999,-0.17174479999999998
15394,12:40:08.300000,7.060196899999999,8.0681133,-3.0668404,2.4123697,-0.6497461999999999,-0.03613280000000001
15395,12:40:08.310000,7.907708199999999,8.973081599999999,-2.7699722999999996,2.6225071,-0.6350855,0.0616056
15396,12:40:08.319000,8.5014448,10.251530599999999,-2.5521092,2.7837753,-0.6216465,0.09947919999999999
15397,12:40:08.332000,7.8717966,10.4239063,-3.442714,2.352505,-0.3956265,0.5319714
15398,12:40:08.339000,8.7432489,10.550792699999999,-3.6749415,2.352505,-0.3956265,0.5319714
15399,12:40:08.349000,8.3530102,10.857237800000002,-3.9095633000000003,1.7269793999999998,-0.16471960000000002,0.8520645
15400,12:40:08.358000,8.3721638,10.926667199999999,-3.5839657999999996,1.7269793999999998,-0.16471960000000002,0.8520645
15401,12:40:08.368000,7.914890299999999,11.4413977,-3.270339,1.4459816,-0.086529,0.9302552
15402,12:40:08.377000,7.3403072,11.7526312,-2.5808383999999998,1.2309573,-0.0596509,0.836182
15403,12:40:08.388000,6.6244712,11.099041900000001,-2.1546887999999997,0.8094606,-0.054764,0.6077186
15404,12:40:08.398000,6.059464,10.9314547,-1.7069923999999999,0.6494141,-0.0877507,0.47699359999999996
15405,12:40:08.406000,5.5423384,10.694438900000002,-1.623199,0.6494141,-0.0877507,0.47699359999999996
15406,12:40:08.417000,5.3962984,10.320960000000001,-1.8027563999999998,0.1411746,-0.1989281,0.0835967
15407,12:40:08.426000,5.281382099999999,9.576395,-2.2432703999999997,0.1411746,-0.1989281,0.0835967
15408,12:40:08.435000,5.3484163,8.3745575,-2.473104,-0.1605926,-0.2209192,-0.07156289999999998
15409,12:40:08.449000,5.4920626,7.7856088,-2.9303767999999994,-0.4806857,-0.1818239,-0.24627020000000002
15410,12:40:08.455000,5.7602015,7.4312825,-3.126693,-0.4806857,-0.1818239,-0.24627020000000002
15411,12:40:08.466000,5.9110298,7.3235478,-3.2128806,-0.37317340000000004,-0.1561675,-0.2401616
15412,12:40:08.475000,5.966094,7.2996068,-3.7371883,-0.37317340000000004,-0.1561675,-0.2401616
15413,12:40:08.485000,6.2653565,6.9213395,-3.4522904999999997,-0.3047566,-0.1244026,-0.2120618
15414,12:40:08.497000,6.1552280999999995,6.9740095,-3.1386635,-0.2778786,-0.0938593,-0.1033279
15415,12:40:08.504000,6.4808254000000005,6.564619099999999,-3.0859932999999997,-0.2778786,-0.0938593,-0.1033279
15416,12:40:08.516000,6.6364417,5.37954,-4.137002900000001,-0.1703664,-0.0889724,-0.1094366
15417,12:40:08.523000,6.7872701,4.9150844000000005,-4.7355275,-0.1703664,-0.0889724,-0.1094366
15418,12:40:08.532000,6.6340475,5.843995099999999,-3.8161936,0.1130748,-0.1170722,-0.18762720000000002
15419,12:40:08.542000,5.913424,7.893343400000001,-3.0644464,0.5406801999999999,-0.07186820000000001,-0.15586229999999998
15420,12:40:08.552000,6.3443613,8.1830292,-3.4498963,1.0428109,-0.0315511,-0.055680499999999994
15421,12:40:08.563000,6.7417822,7.9723492,-3.4714432,1.0367023000000002,-0.08164199999999999,-0.1350929
15422,12:40:08.572000,6.835152099999999,8.9275942,-3.4546845,1.0367023000000002,-0.08164199999999999,-0.1350929
15423,12:40:08.581000,6.691505900000001,8.3889217,-3.3469501000000004,0.6958398,-0.2563494,0.2240956
15424,12:40:08.591000,5.6979551,8.9323816,-2.5066216,0.6958398,-0.2563494,0.2240956
15425,12:40:08.601000,6.3922434,9.657794,-1.7476921000000003,0.2511303,-0.49336490000000005,0.4916544
15426,12:40:08.613000,6.370697,11.699960699999998,-1.0869209,-0.131271,-0.7218283000000001,0.6541443
15427,12:40:08.620000,7.776032400000001,9.4926023,-1.1252263999999998,-0.131271,-0.7218283000000001,0.6541443
15428,12:40:08.630000,7.2134194,9.4327488,-0.1604046,-1.5252643999999997,-1.1457684,0.8386254999999999
15429,12:40:08.639000,7.278060000000001,10.5124884,-0.8403287,-1.5252643999999997,-1.1457684,0.8386254999999999
15430,12:40:08.648000,6.557436500000001,9.214885699999998,-1.6974159,-1.9113308999999998,-1.3009281000000001,1.1538317
15431,12:40:08.660000,6.2342329,9.4351435,-2.5018332,-2.2656324,-1.3583493,1.4763683
15432,12:40:08.668000,6.286903400000001,8.1351471,-3.0979638,-2.4598875,-1.3131454,1.3517518999999998
15433,12:40:08.681000,6.4257612,8.1064186,-3.7515528,-2.7347764999999997,-1.0113782,0.9595767
15434,12:40:08.687000,6.2629623,6.8973985,-3.6414242,-2.7347764999999997,-1.0113782,0.9595767
15435,12:40:08.698000,5.8679361,8.3697691,-2.0876541,-1.8917831999999999,-0.8659924000000001,0.6553661
15436,12:40:08.707000,5.3412347,9.6218834,-1.3406953000000001,-1.8917831999999999,-0.8659924000000001,0.6553661
15437,12:40:08.716000,4.606246,9.293891,-1.0079155999999998,-1.395761,-0.8440011999999999,0.4806588
15438,12:40:08.731000,3.6845181000000005,9.2914972,-1.7405096999999998,-1.0206901,-0.8159015000000001,-0.0886672
15439,12:40:08.735000,4.7786212,8.815072099999998,-0.725412,-1.0206901,-0.8159015000000001,-0.0886672
15440,12:40:08.746000,3.7395822999999995,8.5756617,-0.4548787,-0.7934484,-0.6216465,-0.4857292
15441,12:40:08.764000,2.4778922000000003,9.6003361,-1.3646363000000001,-0.7934484,-0.6216465,-0.4857292
15442,12:40:08.776000,3.8880162000000005,9.7248287,-1.9296436000000001,-1.0585636999999999,-0.3064403,-0.6531062
15443,12:40:08.784000,4.388382900000001,8.973081599999999,-2.2600293,-1.2748098,-0.23191479999999998,-0.8779044
15444,12:40:08.796000,3.9191399,8.386528,-2.5712618999999997,-1.4446303,0.1651473,-1.2835186
15445,12:40:08.804000,3.9047748999999996,7.491135099999999,-3.3565266000000005,-1.4446303,0.1651473,-1.2835186
15446,12:40:08.813000,4.522452400000001,6.0091882000000005,-4.1106677000000005,-1.4299694,0.3325242,-1.5046515
15447,12:40:08.826000,4.0125093000000005,4.8384733,-4.7905917,-1.2002844,0.4803535,-1.8149708999999998
15448,12:40:08.833000,4.1633377000000005,5.743443,-5.0491543,-0.6309584,0.6404001,-2.0324388
15449,12:40:08.843000,4.630187,7.649145599999999,-5.5279741,1.3506868,0.7185906999999999,-1.895605
15450,12:40:08.852000,4.9294496,9.8373518,-4.7451034000000005,1.3506868,0.7185906999999999,-1.895605
15451,12:40:08.862000,6.0881929,10.048031800000002,-4.634975,2.2315536,0.4608058,-1.7917578999999997
15452,12:40:08.872000,6.7561464,10.285047500000001,-4.1513672,2.2315536,0.4608058,-1.7917578999999997
15453,12:40:08.881000,7.3929772,10.3760242,-4.0196919,1.9872078000000002,0.2384511,-1.7624365000000002
15454,12:40:08.893000,8.0322018,9.415989900000001,-4.0460272,0.9719507,-0.2905578,-1.4997646999999998
15455,12:40:08.901000,8.0441723,8.9347773,-4.242342900000001,0.9719507,-0.2905578,-1.4997646999999998
15456,12:40:08.910000,7.6108398,9.423173,-4.0795441,0.4160638,-0.5825511,-1.0086294
15457,12:40:08.920000,8.0154428,9.4926023,-4.2998012999999995,0.4160638,-0.5825511,-1.0086294
15458,12:40:08.929000,8.9299879,8.582843800000001,-4.2734666,0.1729396,-0.6607418,-0.9353256999999999
15459,12:40:08.943000,9.1143341,9.1191216,-3.416379,-0.15937079999999998,-0.8611054,-1.1063677
15460,12:40:08.949000,8.5780563,9.8181992,-3.2248509,-0.2827655,-1.1176686000000002,-1.1833367
15461,12:40:08.960000,8.573267900000001,9.4566898,-3.0285349,-0.4269295999999999,-1.3351364,-1.0403944
15462,12:40:08.968000,8.7504311,8.8054953,-2.8106720000000003,-0.7311403000000001,-1.5477173,-1.0379509
15463,12:40:08.978000,8.822254199999998,8.326675400000001,-2.7603958,-1.0060294,-1.7150942999999998,-1.1246936
15464,12:40:08.988000,8.5349617,7.8789792,-3.0285349,-1.1795149,-1.7688503,-1.123472
15465,12:40:08.997000,8.429621699999998,7.483952499999999,-2.8992536,-1.2467101,-1.7065423,-1.0611638
15466,12:40:09.009000,8.1902122,7.7185745,-2.6215382000000003,-0.9498298000000001,-1.5074003,-1.155237
15467,12:40:09.017000,7.7856088,8.1662712,-2.1666594,-0.9498298000000001,-1.5074003,-1.155237
15468,12:40:09.027000,7.4312825,8.2428818,-1.8123327,-0.7250314999999999,-1.1811986,-1.1515718000000001
15469,12:40:09.036000,6.9285220999999995,7.893343400000001,-1.8051505,-0.7250314999999999,-1.1811986,-1.1515718000000001
15470,12:40:09.045000,6.2725387,7.572534599999999,-1.6974159,-0.7616835,-1.0113782,-1.2028843
15471,12:40:09.057000,5.6764078,7.0290742,-1.7859976000000002,-0.7042621,-0.6741808000000001,-1.1870018999999998
15472,12:40:09.065000,4.8360796,7.1200494999999995,-1.6662928,-0.7042621,-0.6741808000000001,-1.1870018999999998
15473,12:40:09.075000,4.5607581,6.9213395,-2.0996243999999997,-0.5894196,-0.5593383000000001,-1.1173633
15474,12:40:09.085000,4.407536,6.835152099999999,-1.9320377,-0.49412470000000003,-0.4677085999999999,-1.0513899
15475,12:40:09.095000,4.0220861,7.361853599999999,-1.5394055,-0.27910029999999997,-0.4163959,-0.9622037
15476,12:40:09.108000,3.4834137000000003,7.8574319,-1.4292768999999999,0.0190017,-0.3198793,-0.7129709
15477,12:40:09.114000,2.9471354,7.7999735,-1.2808429,0.0190017,-0.3198793,-0.7129709
15478,12:40:09.125000,2.4611335,7.5964756,-1.4723707000000001,-0.2461136,-0.2587928,-0.6274499
15479,12:40:09.133000,2.1475065,7.203843099999999,-1.5801051000000002,-0.2461136,-0.2587928,-0.6274499
15480,12:40:09.143000,1.8099386999999998,7.1822957999999995,-1.9703432,-0.3780604,-0.2575711,-0.6201194999999999
15481,12:40:09.153000,1.4508239,7.661116099999999,-2.2863643,-0.43303820000000004,-0.20137149999999998,-0.5871328
15482,12:40:09.162000,0.9696100000000001,7.9891076000000005,-2.7747604999999997,-0.4244861,-0.1170722,-0.5187159
15483,12:40:09.175000,0.7086533,8.2380943,-3.006988,-0.3524041,0.0429744,-0.468625
15484,12:40:09.182000,0.5769778,7.9101024,-2.8657362,-0.3524041,0.0429744,-0.468625
15485,12:40:09.192000,0.3830558,7.5150762,-2.7292726000000003,-0.32186079999999995,0.0637438,-0.6054586999999999
15486,12:40:09.202000,0.028729200000000003,7.4671940999999995,-3.0117762000000003,-0.32186079999999995,0.0637438,-0.6054586999999999
15487,12:40:09.211000,-0.6583770999999999,7.524652499999999,-3.2368214,-0.1752533,0.2017992,-0.7044188
15488,12:40:09.223000,-1.4532180000000001,7.5821104,-3.6533947,-0.0494152,0.2787682,-0.7581749
15489,12:40:09.230000,-1.7141746999999998,7.5629577999999995,-3.8473167,-0.0494152,0.2787682,-0.7581749
15490,12:40:09.243000,-1.4532180000000001,7.464799900000001,-3.6533947,0.25846060000000004,0.1651473,-0.8473610999999999
15491,12:40:09.249000,-1.1659261,7.483952499999999,-3.3325856,0.39407259999999994,0.0576351,-0.8852348
15492,12:40:09.268000,-1.7045983,8.3506165,-3.4068023999999997,0.39407259999999994,0.0576351,-0.8852348
15493,12:40:09.277000,-1.8386679,8.6810017,-3.5719953,0.5492322,-0.030329400000000003,-0.7813876999999999
15494,12:40:09.288000,-1.8650029,9.0472994,-3.6725476,0.6017666,-0.2258061,-0.6689885999999999
15495,12:40:09.298000,-1.6974159,9.4183836,-3.4546845,0.6017666,-0.2258061,-0.6689885999999999
15496,12:40:09.308000,-1.1371969,9.6530056,-3.2583685,0.5419019,-0.5483427,-0.5553678000000001
15497,12:40:09.317000,-0.6104951999999999,9.9546633,-3.102752,0.5419019,-0.5483427,-0.5553678000000001
15498,12:40:09.326000,-0.13406949999999998,9.980998,-2.8082778,0.49914140000000007,-0.6876199000000001,-0.5651417
15499,12:40:09.338000,0.2489863,9.794258099999999,-2.5209861,0.43561140000000004,-0.8598836999999999,-0.7105275
15500,12:40:09.346000,0.47642559999999995,9.7990456,-2.640691,0.43561140000000004,-0.8598836999999999,-0.7105275
15501,12:40:09.357000,0.7685057,9.8636866,-2.7005434,0.2877822,-0.8830966,-0.8473610999999999
15502,12:40:09.366000,1.0246743,10.028880099999999,-2.7292726000000003,0.2877822,-0.8830966,-0.8473610999999999
15503,12:40:09.376000,1.2880251,10.124644300000002,-2.2456646,0.2780083,-0.8769879,-0.8693523000000001
15504,12:40:09.389000,1.3167541999999999,10.036062199999998,-1.7859976000000002,0.29511259999999995,-0.8097928000000001,-0.8388091000000001
15505,12:40:09.395000,1.0246743,9.7248287,-1.2999957,0.29511259999999995,-0.8097928000000001,-0.8388091000000001
15506,12:40:09.409000,0.44530240000000004,9.3537436,-1.0629798000000001,0.19737420000000003,-0.7584801,-0.8388091000000001
15507,12:40:09.413000,0.055064300000000004,9.0927868,-0.8666638000000001,0.0251103,-0.7022805999999999,-0.8412525
15508,12:40:09.423000,-0.122099,8.9850531,-0.8187817,-0.1581491,-0.6925068,-0.8461394
15509,12:40:09.433000,0.1532223,8.8581648,-0.775688,-0.2925393,-0.7218283000000001,-0.8608002
15510,12:40:09.443000,0.5027608,9.0449047,-1.2497194999999999,-0.3585127,-0.7572584,-0.8754609
15511,12:40:09.458000,0.7325941999999999,9.341773,-1.9679491999999998,-0.3291912,-0.6033205,-0.8107093000000001
15512,12:40:09.461000,0.7924467,9.7846823,-2.9208004,-0.2461136,-0.3736354,-0.7838312
15513,12:40:09.472000,0.7038651,10.2611074,-3.2942801,-0.2461136,-0.3736354,-0.7838312
15514,12:40:09.482000,0.4668492,10.8021736,-3.1889396,-0.1153885,-0.0975245,-0.780166
15515,12:40:09.492000,0.4500906,11.3264809,-2.4587395,0.043436300000000004,0.14071270000000002,-0.7838312
15516,12:40:09.506000,0.8810283000000001,11.654473300000001,-1.4197004999999998,0.2694562,0.3496284,-0.8644654
15517,12:40:09.511000,1.1443793,11.843606900000001,-1.0150979,0.2694562,0.3496284,-0.8644654
15518,12:40:09.522000,0.9049693000000001,12.0016174,-1.065374,0.3195471,0.46935790000000005,-0.9719774999999999
15519,12:40:09.530000,0.509943,11.8196659,-1.26169,0.3195471,0.46935790000000005,-0.9719774999999999
15520,12:40:09.540000,0.1053403,11.3552103,-1.4436415,0.22180879999999997,0.45958409999999994,-0.9646471999999999
15521,12:40:09.553000,-0.2537745,11.2331114,-1.2257784999999999,0.0409928,0.4204888,-0.9585385000000001
15522,12:40:09.560000,-0.3064446,11.1588936,-0.0694289,-0.21312689999999998,0.35818059999999996,-0.9402126000000001
15523,12:40:09.571000,-0.3998145,10.9793367,0.5961305,-0.5552111999999999,0.360624,-0.9548733
15524,12:40:09.579000,-0.5721896,10.500516900000001,1.065374,-0.5552111999999999,0.360624,-0.9548733
15525,12:40:09.588000,-0.49557840000000003,10.668104199999998,0.5554309000000001,-0.44769899999999996,0.6037481,-1.0672723999999998
15526,12:40:09.599000,-0.1723751,11.0487661,0.045487900000000005,-0.41837749999999996,0.6843823,-1.1161416000000002
15527,12:40:09.607000,-0.055064300000000004,11.1397409,-0.7230178,-0.41837749999999996,0.6843823,-1.1161416000000002
15528,12:40:09.619000,-0.0215469,10.845267300000001,-1.5274348999999998,-0.4489207,1.0362403,-1.2493101
15529,12:40:09.627000,-0.1580105,10.4622116,-2.3486105999999998,-0.4489207,1.0362403,-1.2493101
15530,12:40:09.637000,-0.5889483,10.1390076,-2.7532134,-0.650506,1.3343425,-1.2920706
15531,12:40:09.646000,-0.9983392,9.5261192,-2.9638944,-0.650506,1.3343425,-1.2920706
15532,12:40:09.656000,-1.5968639,8.8007069,-3.0596582999999997,-0.7470226,1.4504068,-1.3006227
15533,12:40:09.669000,-1.9871020000000001,8.4487743,-3.4068023999999997,-0.6737189,1.5591407,-1.4337913
15534,12:40:09.675000,-2.1235654,8.0848713,-3.3254032,-0.6737189,1.5591407,-1.4337913
15535,12:40:09.686000,-2.2983347999999997,8.168664900000001,-3.2511859,-0.37439520000000004,1.5481451000000002,-1.4912125
15536,12:40:09.695000,-2.8537657000000003,8.4631386,-2.9591060000000002,-0.37439520000000004,1.5481451000000002,-1.4912125
15537,12:40:09.705000,-2.9495296000000004,8.613966900000001,-3.246398,-0.2290094,1.5188236000000002,-1.4264609
15538,12:40:09.715000,-2.7125139,8.604391099999999,-3.2559742999999997,-0.2290094,1.5188236000000002,-1.4264609
15539,12:40:09.724000,-2.0493486,8.4200449,-3.4738371,-0.266883,1.4076461999999998,-1.4289043
15540,12:40:09.735000,-1.5226468,8.613966900000001,-3.6438181000000003,-0.2925393,1.236604,-1.3800351999999998
15541,12:40:09.744000,-1.3263308,8.724096300000001,-3.8137991,-0.2925393,1.236604,-1.3800351999999998
15542,12:40:09.754000,-1.2090199,8.3793459,-3.7946465,-0.28032199999999996,1.2121693999999998,-1.3995829
15543,12:40:09.763000,-1.4508239,7.701815600000001,-3.5121427000000005,-0.28032199999999996,1.2121693999999998,-1.3995829
15544,12:40:09.772000,-1.9176731,7.17272,-3.3589206,-0.28398720000000005,1.214613,-1.4655561000000001
15545,12:40:09.785000,-2.1786296000000003,6.9955564,-3.4211669000000002,-0.34629540000000003,1.2549299999999999,-1.511982
15546,12:40:09.805000,-2.9662883,7.0913205,-4.1633377000000005,-0.221679,1.3661072,-1.4679997
15547,12:40:09.811000,-3.4882019,7.167931599999999,-4.7834096,-0.221679,1.3661072,-1.4679997
15548,12:40:09.820000,-3.7347938999999997,7.3450952,-4.625399099999999,-0.0811801,1.4882803,-1.4411216
15549,12:40:09.833000,-3.9239278,7.452829400000001,-4.6397634000000005,0.0874185,1.5738013000000002,-1.4215739
15550,12:40:09.840000,-4.0819383,7.634780900000001,-4.3213482,0.21814360000000002,1.5835752,-1.3299443000000002
15551,12:40:09.851000,-4.2112193,7.7401209,-4.2614961,0.5235759,1.5322626,-1.1735628999999999
15552,12:40:09.860000,-4.4027476,7.618022,-4.065179799999999,0.5235759,1.5322626,-1.1735628999999999
15553,12:40:09.869000,-4.606246,7.809549799999999,-4.096303,0.6176491,1.4345243,-1.1222502
15554,12:40:09.879000,-4.673281200000001,7.900525999999999,-4.6206107,0.6457489000000001,1.308686,-1.0477246999999998
15555,12:40:09.888000,-5.0898538,8.1997881,-5.1712537,0.6115404000000001,1.1926217,-0.9793079
15556,12:40:09.904000,-5.2885642,8.178241700000001,-5.429815799999999,0.5296845,0.9727104,-0.8192613999999999
15557,12:40:09.907000,-5.6285262000000005,8.2811871,-5.350810500000001,0.5113585999999999,0.8444288000000001,-0.7325186
15558,12:40:09.918000,-5.6931671999999995,8.1902122,-4.651733900000001,0.5113585999999999,0.8444288000000001,-0.7325186
15559,12:40:09.927000,-5.7218962,8.2452765,-4.1489735,0.5015847999999999,0.6917127,-0.6616583
15560,12:40:09.937000,-5.6117672999999995,8.1854239,-4.055603,0.4942544,0.5157837000000001,-0.604237
15561,12:40:09.947000,-5.2622290000000005,7.9388312999999995,-4.508088099999999,0.3366513,0.21523820000000002,-0.5761371999999999
15562,12:40:09.956000,-4.958178500000001,7.8454614000000005,-5.1114011,0.3366513,0.21523820000000002,-0.5761371999999999
15563,12:40:09.967000,-4.9773316,8.0729008,-5.381934200000001,0.2108132,0.0906218,-0.6677668999999999
15564,12:40:09.976000,-4.9198732000000005,7.946013499999999,-5.7314725,0.2108132,0.0906218,-0.6677668999999999
15565,12:40:09.986000,-5.1760416,7.665903999999999,-5.6811967,0.12040519999999999,0.08573489999999999,-0.734962
15566,12:40:09.995000,-5.295746299999999,6.8183932,-4.8719912,0.0727578,0.0967304,-0.8278135
15567,12:40:10.005000,-5.2335,6.4425197,-4.3333187,0.0495449,0.0735176,-0.9536515999999999
15568,12:40:10.017000,-5.1305537,6.1743803,-4.0460272,-0.0298675,0.030757099999999996,-0.960982
15569,12:40:10.025000,-4.879172799999999,6.1456513,-4.2998012999999995,-0.0298675,0.030757099999999996,-0.960982
15570,12:40:10.035000,-4.843262200000001,6.0762224,-4.8839616999999995,-0.2558874,-0.0462119,-0.8595784
15571,12:40:10.044000,-5.0778837,6.171986599999999,-5.2287116,-0.2558874,-0.0462119,-0.8595784
15572,12:40:10.053000,-5.0587306,6.3611207,-5.1832242,-0.26932649999999997,-0.0828638,-0.7618401
15573,12:40:10.066000,-4.9773316,6.827969599999999,-4.9653611,-0.1557056,-0.1561675,-0.5871328
15574,12:40:10.073000,-4.7163744,7.0530152,-4.3333187,-0.1557056,-0.1561675,-0.5871328
15575,12:40:10.083000,-4.723557,6.9117632,-3.8209815000000003,-0.009098100000000001,-0.1940412,-0.5187159
15576,12:40:10.093000,-4.488935,6.732205400000001,-3.5480542,-0.009098100000000001,-0.1940412,-0.5187159
15577,12:40:10.102000,-4.4482355,6.3084502,-3.4283495000000004,-0.009098100000000001,-0.18426729999999997,-0.5077204000000001
15578,12:40:10.114000,-4.6158223,5.927788700000001,-3.7850699,-0.1691447,-0.09263760000000001,-0.49428130000000003
15579,12:40:10.122000,-4.8504438,5.1497064,-4.4506296999999995,-0.1691447,-0.09263760000000001,-0.49428130000000003
15580,12:40:10.132000,-5.1832242,5.4202394,-5.2550468,-0.3291912,0.1162781,-0.44419040000000004
15581,12:40:10.141000,-5.226317400000001,6.176775,-5.4465747,-0.3291912,0.1162781,-0.44419040000000004
15582,12:40:10.150000,-4.601458099999999,6.2629623,-5.3867221,-0.3524041,0.20302089999999998,-0.3391217
15583,12:40:10.161000,-3.8209815000000003,6.4018202,-5.343628400000001,-0.3524041,0.20302089999999998,-0.3391217
15584,12:40:10.170000,-3.3230089999999994,6.725023299999999,-5.317293599999999,-0.3829473,0.20057750000000002,-0.2817004
15585,12:40:10.182000,-3.2296392999999997,6.725023299999999,-5.4944562999999995,-0.3682866,0.1712559,-0.085002
15586,12:40:10.189000,-3.5336897000000005,6.5239191,-5.934970900000001,-0.3682866,0.1712559,-0.085002
15587,12:40:10.199000,-4.156155600000001,6.2964797,-6.140863400000001,-0.3853908,0.21279479999999998,0.09092710000000001
15588,12:40:10.209000,-4.6613107000000005,6.0881929,-5.8799067,-0.3853908,0.21279479999999998,0.09092710000000001
15589,12:40:10.218000,-5.365175700000001,6.1552280999999995,-5.5160035999999995,-0.3853908,0.25433360000000005,0.1959958
15590,12:40:10.230000,-5.944547200000001,6.2605680999999995,-4.7570739,-0.343852,0.26899429999999996,0.35604240000000004
15591,12:40:10.238000,-6.3635144,6.119316599999999,-4.4673886,-0.343852,0.26899429999999996,0.35604240000000004
15592,12:40:10.247000,-6.4425197,6.0115819,-4.1441851000000005,-0.3878342,0.2189034,0.4122419
15593,12:40:10.257000,-6.7872701,5.9828529,-4.2231898,-0.3878342,0.2189034,0.4122419
15594,12:40:10.267000,-7.0841379,5.7697778,-4.5009055,-0.4318165,0.1993557,0.4232375
15595,12:40:10.280000,-7.2565136,5.9373651,-4.5200586,-0.47091179999999994,0.20668609999999998,0.4415634
15596,12:40:10.286000,-7.1894784,5.8320246,-4.412324,-0.5014550999999999,0.20668609999999998,0.4550025
15597,12:40:10.296000,-7.115261599999999,5.944547200000001,-4.436265000000001,-0.5161157999999999,0.19202539999999998,0.452559
15598,12:40:10.306000,-7.100896799999999,6.3443613,-4.5032997,-0.5161157999999999,0.19202539999999998,0.452559
15599,12:40:10.315000,-7.0147095,6.849516400000001,-4.479359099999999,-0.5161157999999999,0.16759079999999998,0.4757719
15600,12:40:10.329000,-6.8399401,6.875851600000001,-4.0723619,-0.4696901,0.0380874,0.5331931
15601,12:40:10.335000,-6.713053200000001,6.476037,-3.7204294,-0.4696901,0.0380874,0.5331931
15602,12:40:10.353000,-5.33884,5.8870888,-2.6095676,-0.48923779999999994,-0.23680170000000003,0.4684415
15603,12:40:10.363000,-4.5009055,6.4616723,-2.300729,-0.5026768,-0.32843140000000004,0.46966320000000006
15604,12:40:10.372000,-4.139396700000001,6.9524631999999995,-2.0876541,-0.5026768,-0.32843140000000004,0.46966320000000006
15605,12:40:10.382000,-4.2303724,7.2660894,-2.2696054,-0.5478808000000001,-0.3968483,0.4867674
15606,12:40:10.394000,-4.7427095999999995,7.606051400000001,-2.2217238,-0.6138541999999999,-0.321101,0.5368583
15607,12:40:10.402000,-5.302928400000001,7.893343400000001,-2.0373781,-0.6138541999999999,-0.321101,0.5368583
15608,12:40:10.412000,-5.4202394,8.1351471,-1.8314854999999999,-0.5527678,-0.0242208,0.46355459999999993
15609,12:40:10.422000,-5.508821,8.1183891,-1.6662928,-0.5527678,-0.0242208,0.46355459999999993
15610,12:40:10.431000,-5.0778837,7.8981318,-1.5801051000000002,-0.5368853,0.12238679999999999,0.3401599
15611,12:40:10.444000,-4.0149035,7.5031056,-1.9296436000000001,-0.5283331,0.320307,0.024953700000000002
15612,12:40:10.451000,-3.5935422999999993,7.606051400000001,-2.5521092,-0.5283331,0.320307,0.024953700000000002
15613,12:40:10.462000,-3.4020143,7.4576173,-3.0644464,-0.5808675,0.405828,-0.0495718
15614,12:40:10.470000,-3.9574451,7.3259419999999995,-3.2559742999999997,-0.5808675,0.405828,-0.0495718
15615,12:40:10.480000,-4.4482355,7.974742900000001,-3.416379,-0.6175194,0.39483240000000003,0.0041843
15616,12:40:10.493000,-4.946208,8.5014448,-3.5360837,-0.6395105,0.3691761,0.12880070000000002
15617,12:40:10.499000,-5.6620436,8.97787,-3.8880162000000005,-0.6443974,0.3496284,0.25586060000000005
15618,12:40:10.510000,-5.9613061,9.657794,-4.6708865,-0.6517278000000001,0.3141983,0.42568100000000003
15619,12:40:10.519000,-5.9230003,10.2874422,-5.3244753,-0.6517278000000001,0.3141983,0.42568100000000003
15620,12:40:10.529000,-5.7697778,10.3425074,-5.7147136,-0.5613198,0.3447415,0.4122419
15621,12:40:10.539000,-5.7554135,10.150979,-5.906241400000001,-0.5613198,0.3447415,0.4122419
15622,12:40:10.547000,-6.3419676,9.6362467,-5.7051377,-0.4721335,0.4204888,0.3731466
15623,12:40:10.560000,-7.225389999999999,9.0927868,-5.168858999999999,-0.37195170000000005,0.5426616999999999,0.316947
15624,12:40:10.567000,-7.936437599999999,8.7647963,-4.7786212,-0.37195170000000005,0.5426616999999999,0.316947
15625,12:40:10.578000,-8.3027344,8.721701600000001,-4.237555,-0.3560692,0.5670963000000001,0.3071732
15626,12:40:10.587000,-8.999417300000001,8.9826584,-3.7730997000000004,-0.3145305,0.5267791999999999,0.3523772
15627,12:40:10.596000,-8.980263699999998,9.1622162,-3.7922525,-0.25955259999999997,0.3862804,0.41712879999999997
15628,12:40:10.609000,-8.7600069,8.9443531,-4.3069835,-0.24244839999999998,0.1956905,0.4488938
15629,12:40:10.616000,-8.151906,8.9563227,-5.3077168,-0.22778769999999998,0.0588568,0.4317896
15630,12:40:10.627000,-7.6252046,9.5476656,-5.726684099999999,-0.0762932,0.003879,0.40002459999999995
15631,12:40:10.635000,-7.594080900000001,10.158161199999999,-5.4896684,0.3403165,0.0649655,0.41468540000000004
15632,12:40:10.646000,-8.0944481,10.967366199999999,-4.8887496,0.9157511,0.12849539999999998,0.42445920000000004
15633,12:40:10.654000,-8.8749237,11.321693400000001,-3.8401343999999997,1.3616823,0.12849539999999998,0.3841422
15634,12:40:10.663000,-9.339379300000001,11.2857809,-3.2176687999999998,1.5412766000000002,0.0759611,0.33649470000000004
15635,12:40:10.677000,-9.423173,11.316905,-2.7436373,1.160097,-0.1353981,0.2204304
15636,12:40:10.683000,-9.272343600000001,11.659260699999999,-2.3893106,1.160097,-0.1353981,0.2204304
15637,12:40:10.694000,-8.491867999999998,12.035134300000001,-2.3988869,0.8546646000000001,-0.3369835,0.0041843
15638,12:40:10.703000,-7.3067894,12.123716400000001,-2.7795486,0.8546646000000001,-0.3369835,0.0041843
15639,12:40:10.713000,-6.0139761,11.948947,-3.4331373999999997,0.7557045,-0.47748240000000003,-0.396543
15640,12:40:10.725000,-4.6924334000000005,12.217085800000001,-3.7611291,0.7544827,-0.5300168000000001,-0.5798024
15641,12:40:10.730000,-3.4786254999999997,12.4062204,-3.9646275,0.7544827,-0.5300168000000001,-0.5798024
15642,12:40:10.741000,-2.5688679,12.327214199999998,-3.9478687999999993,0.726383,-0.5715555999999999,-0.7105275
15643,12:40:10.750000,-1.7405096999999998,11.982463800000001,-3.5743894999999997,0.6310880999999999,-0.5715555999999999,-0.7838312
15644,12:40:10.759000,-1.1180441,11.680808099999998,-3.153028,0.5015847999999999,-0.5263515999999999,-0.8119310000000001
15645,12:40:10.769000,-0.3303856,10.866813699999998,-2.786731,0.48692409999999997,-0.42006109999999997,-0.8192613999999999
15646,12:40:10.778000,0.5362781,9.8756571,-2.1427186000000003,0.5577844,-0.2612363,-0.8412525
15647,12:40:10.789000,0.82357,8.0609303,-2.6502673999999997,0.8131258000000001,0.1712559,-0.8620219000000001
15648,12:40:10.798000,0.6727418000000001,7.524652499999999,-2.1810241,0.8131258000000001,0.1712559,-0.8620219000000001
15649,12:40:10.809000,1.431671,7.1535668,-1.2162021,1.0904584,0.3899455,-0.8889
15650,12:40:10.819000,0.6895005,6.437731299999999,-0.435726,1.2993741,0.5597659,-0.9365474
15651,12:40:10.829000,-0.7421706,6.176775,0.557825,1.2578353,0.7381384,-1.0184033000000001
15652,12:40:10.840000,-2.3246701,6.6125007,1.2090199,0.9328552,0.9201761,-1.0660506
15653,12:40:10.848000,-3.5456602999999998,6.734600099999999,-0.5650073,0.31466020000000006,0.9910363999999999,-1.2432014999999998
15654,12:40:10.858000,-4.1537614000000005,5.990035099999999,-2.5209861,-0.5784239999999999,0.9922581,-1.4814386
15655,12:40:10.867000,-3.8784398999999996,4.7211623,-3.2272451,-1.4214174,1.0044754,-1.6439286
15656,12:40:10.877000,-2.8609481,2.8513715,-3.9957507000000003,-1.9907433999999997,1.0594531999999999,-1.7441105
15657,12:40:10.887000,-3.0428995999999997,1.26169,-2.983047,-2.1532332999999997,1.2647038000000002,-1.7392236
15658,12:40:10.896000,-2.786731,2.2217238,-2.9950175,-1.7231846000000002,1.6226704,-1.6927979
15659,12:40:10.908000,-2.2145412,3.4810195,-3.7778878,-0.8569783999999999,1.9195506999999998,-1.6512591
15660,12:40:10.916000,-2.159477,4.8312917,-4.6397634000000005,-0.2290094,2.0209544,-1.8882746
15661,12:40:10.926000,-2.0325898999999996,5.199982599999999,-5.6811967,0.005562699999999999,1.9207726000000003,-2.1814897
15662,12:40:10.935000,-1.5154645,5.1497064,-6.3922434,-0.3817256,1.7876041,-2.3574188
15663,12:40:10.944000,-0.8642696,4.984513300000001,-6.827969599999999,-1.1465281999999999,1.6409965,-2.3928487
15664,12:40:10.957000,-0.32559740000000004,4.8121386,-6.713053200000001,-2.4721048,1.3661072,-2.0519865000000004
15665,12:40:10.964000,0.5314899000000001,4.7163744,-6.6555943,-2.4721048,1.3661072,-2.0519865000000004
15666,12:40:10.974000,0.3064446,4.6972213,-6.4544902,-2.9058187,1.2427127,-1.4362347
15667,12:40:10.984000,-1.5729228000000002,4.4961176,-5.5662794,-2.9058187,1.2427127,-1.4362347
15668,12:40:10.993000,-4.3309245,4.800168,-4.9438138,-2.9033751,1.1352004999999998,-0.5077204000000001
15669,12:40:11.006000,-5.556703099999999,5.2239237,-3.5839657999999996,-2.8166322999999998,0.9079588,-0.012919899999999998
15670,12:40:11.013000,-5.168858999999999,6.2749329000000005,-2.983047,-2.8166322999999998,0.9079588,-0.012919899999999998
15671,12:40:11.023000,-5.1090064,8.427228,-2.2815759,-1.3261225,0.1553735,0.7531044
15672,12:40:11.032000,-4.3812003,12.035134300000001,-2.5545032,-1.3261225,0.1553735,0.7531044
15673,12:40:11.041000,-6.528707499999999,15.104369199999999,-4.295013,0.6555227,0.060078599999999996,1.5020247
15674,12:40:11.051000,-11.508433300000002,14.690190300000001,-6.0187645,0.6555227,0.060078599999999996,1.5020247
15675,12:40:11.071000,-21.8293915,8.9347773,-6.739388000000001,0.3464252,0.1956905,1.6413018
15676,12:40:11.081000,-22.875614199999998,6.2246566,-5.0730948,-0.5564328000000001,0.451032,1.102519
15677,12:40:11.090000,-17.0747128,7.6419630000000005,-4.8265028,-0.18258370000000002,0.5487704000000001,0.6492574000000001
15678,12:40:11.100000,-15.078034400000002,10.4478474,-5.350810500000001,0.654301,0.5243357,-0.0007026
15679,12:40:11.109000,-10.876391400000001,7.13202,-8.1997881,1.4203253,0.0967304,-0.7337403
15680,12:40:11.122000,-6.8710637000000006,4.5870929,-10.6992273,-0.2143486,-0.9038659,-2.4001791
15681,12:40:11.129000,-3.7826760000000004,4.043633,-10.6728916,-0.2143486,-0.9038659,-2.4001791
15682,12:40:11.139000,-3.0333229999999998,4.2447371,-9.2651625,-1.1917322,-1.6674468999999998,-2.4930305
15683,12:40:11.149000,-4.0532093,3.8856222999999996,-7.1056852,-1.1917322,-1.6674468999999998,-2.4930305
15684,12:40:11.158000,-5.2670169,3.5289016,-4.9055085,-1.2198319,-2.176908,-1.9921216
15685,12:40:11.171000,-6.1001635,3.6797296999999998,-2.5736562999999997,-1.2210537000000001,-2.240438,-1.6280462
15686,12:40:11.177000,-6.6196828,4.213614,-1.1826848,-1.2210537000000001,-2.240438,-1.6280462
15687,12:40:11.188000,-7.0218916,3.952657,-1.211414,-1.4507389,-2.3039680000000002,-0.9829730999999999
15688,12:40:11.197000,-7.1128674,3.3038561,-1.2281727,-1.4507389,-2.3039680000000002,-0.9829730999999999
15689,12:40:11.207000,-7.1056852,3.1003580000000004,-1.5848933,-1.3774351,-2.3491718999999995,-0.4502991
15690,12:40:11.216000,-7.2229962,3.9023809000000003,-1.3454834999999998,-1.3774351,-2.3491718999999995,-0.4502991
15691,12:40:11.226000,-6.2845092000000005,5.063519,-0.3447502,-0.1459318,-2.2905290000000003,0.0518317
15692,12:40:11.237000,-5.1951947,6.2102919000000005,0.2058925,0.5932145000000001,-2.2098949,0.22531729999999997
15693,12:40:11.246000,-4.8121386,6.9883742,0.5697955,0.5932145000000001,-2.2098949,0.22531729999999997
15694,12:40:11.255000,-4.7618623,6.763329,0.4740316,1.6377932,-2.0303006000000003,0.3157253
15695,12:40:11.265000,-5.1377358,7.0721674,0.45248469999999996,1.6377932,-2.0303006000000003,0.3157253
15696,12:40:11.274000,-5.2933525999999995,7.388188400000001,0.9289103000000001,1.9224561000000002,-1.8629236,0.2118783
15697,12:40:11.287000,-4.405141400000001,8.010654400000002,1.8745793999999998,2.2486579,-1.4829656999999998,0.0176233
15698,12:40:11.294000,-2.3581872,8.5014448,1.5298291000000002,2.2486579,-1.4829656999999998,0.0176233
15699,12:40:11.304000,-0.45727290000000004,9.2795267,1.8913380000000002,2.3048575000000002,-1.1506553,0.012736399999999998
15700,12:40:11.313000,1.9679491999999998,10.2491369,1.4915235,2.3170748,-0.8928704,0.1031444
15701,12:40:11.322000,1.9775256,11.3767567,0.0,2.3671656000000003,-0.6143161,0.25219539999999996
15702,12:40:11.335000,-2.0613191000000004,10.519669500000001,-0.6871063000000001,2.3622787,-0.30277509999999996,0.4305679
15703,12:40:11.342000,-7.9699545,11.034400900000001,0.48121379999999997,2.0250814,-0.12073740000000001,0.6248228
15704,12:40:11.353000,-12.372701600000001,12.7222414,3.4355318999999995,1.1136713,-0.1121853,0.8202995000000001
15705,12:40:11.361000,-12.0016174,12.7725172,3.6055129,1.1136713,-0.1121853,0.8202995000000001
15706,12:40:11.372000,-9.9115686,11.261840800000002,2.2767880000000003,0.7434871999999999,0.3288591,0.6761355
15707,12:40:11.380000,-7.249331,9.712859199999999,-0.7852644,0.5919928000000001,0.6489522,0.19355229999999998
15708,12:40:11.390000,-5.602191,9.471055,-3.6653652,0.7105005999999999,0.8664200000000001,-0.21450529999999998
15709,12:40:11.402000,-4.6780691,8.9323816,-5.3939047,0.6982832,0.8468724,-0.7093056999999999
15710,12:40:11.410000,-5.8224478,8.0010777,-5.767384099999999,0.6982832,0.8468724,-0.7093056999999999
15711,12:40:11.420000,-10.7734442,7.5629577999999995,-4.6230044,0.22180879999999997,0.6391783000000001,-0.7948268
15712,12:40:11.429000,-13.9671717,7.9172845,-3.4858077000000005,0.22180879999999997,0.6391783000000001,-0.7948268
15713,12:40:11.439000,-12.6456299,8.7456427,-2.6598437,-0.1520405,0.5976395,-0.5529243
15714,12:40:11.451000,-11.106224099999999,8.7552195,-3.2799153,-0.6786058,0.027091900000000006,0.0469448
15715,12:40:11.458000,-9.909174900000002,9.339379300000001,-3.6342421000000003,-0.6786058,0.027091900000000006,0.0469448
15716,12:40:11.468000,-6.827969599999999,9.3728971,-3.7060647000000007,-0.45502929999999997,-0.2636797,0.5173106
15717,12:40:11.478000,-5.3723574,8.7145185,-3.5719953,0.40262470000000006,-1.0871253,1.062202
15718,12:40:11.487000,-5.5423384,7.531834599999999,-2.8657362,0.40262470000000006,-1.0871253,1.062202
15719,12:40:11.502000,-5.6069794,7.1799021,-2.2265117,0.9524029,-1.5978084,1.5289026000000001
15720,12:40:11.506000,-5.934970900000001,7.5557756,-1.431671,0.9670638,-1.7077639,1.8270046999999998
15721,12:40:11.516000,-6.4137907,8.695366900000002,-0.9001811,0.9108641,-1.7053203999999997,2.1458758999999996
15722,12:40:11.526000,-6.8590932,10.2036486,-1.1180441,0.9108641,-1.7053203999999997,2.1458758999999996
15723,12:40:11.535000,-6.511948599999999,11.561102900000002,-1.4484297,0.8253431,-1.6442339,2.4488649
15724,12:40:11.545000,-6.152833900000001,11.8076954,-2.1020187999999997,0.8033520000000001,-1.5428305,2.6675546000000003
15725,12:40:11.555000,-6.815999000000001,10.967366199999999,-2.8681302000000004,0.8729906,-1.3901143,2.7127585
15726,12:40:11.567000,-7.2158136,9.7176466,-3.2296392999999997,1.0843498,-1.0235955,2.3963306
15727,12:40:11.574000,-6.4927959,8.839013099999999,-3.4115907999999995,1.0843498,-1.0235955,2.3963306
15728,12:40:11.584000,-5.6117672999999995,8.410469099999998,-3.3397677000000003,1.0574718,-1.0565822,1.8318915
15729,12:40:11.594000,-5.1209769,7.9436197,-3.4211669000000002,1.0574718,-1.0565822,1.8318915
15730,12:40:11.603000,-4.5272403,7.608446099999999,-3.8736517,0.9829462,-1.2117417,1.5643328
15731,12:40:11.616000,-4.1705198,7.419312,-3.9502629999999996,0.7105005999999999,-1.5599346,0.9656853000000001
15732,12:40:11.623000,-3.809011,7.948408099999999,-3.9909625,0.7105005999999999,-1.5599346,0.9656853000000001
15733,12:40:11.633000,-3.2320333,9.1215162,-3.9119572999999996,0.5394584,-1.6967683,0.5600712
15734,12:40:11.642000,-2.3174875,9.9402981,-3.0788109,0.5394584,-1.6967683,0.5600712
15735,12:40:11.652000,-1.7309333999999998,10.1102791,-1.9966784,0.545567,-1.6784424999999998,0.42201579999999994
15736,12:40:11.665000,-1.3670303999999998,10.016908599999999,-0.9384867,0.5871059000000001,-1.6332386,0.30961669999999997
15737,12:40:11.671000,-0.6990768,10.127038,-0.0694289,0.6579661,-1.5330567,0.172783
15738,12:40:11.691000,-0.9265162,10.5579748,1.0031273,0.7862477,-1.4340966,0.0493883
15739,12:40:11.701000,-2.2241178,10.6848631,1.2281727,1.0342588,-0.8012406999999999,-0.0642326
15740,12:40:11.711000,-4.122638200000001,11.508433300000002,1.4340651000000002,1.0342588,-0.8012406999999999,-0.0642326
15741,12:40:11.720000,-5.556703099999999,12.8778572,1.3766067,0.8571081,-0.5190212000000001,0.10803130000000001
15742,12:40:11.732000,-5.7075315,13.787614800000002,1.1563497999999999,0.3549773,-0.11829389999999998,0.6138272
15743,12:40:11.740000,-5.602191,13.500323300000002,0.3974204,0.3549773,-0.11829389999999998,0.6138272
15744,12:40:11.750000,-4.9940901,12.372701600000001,-1.0270684,0.26334759999999996,0.1040608,0.49409780000000003
15745,12:40:11.759000,-4.7618623,11.2977524,-2.3126995999999997,0.26334759999999996,0.1040608,0.49409780000000003
15746,12:40:11.769000,-5.6428905,10.909908300000001,-3.0452936,0.31588190000000005,0.19691229999999998,0.27174299999999996
15747,12:40:11.782000,-6.562224400000001,11.640108099999999,-2.7101197,0.37696840000000004,0.2812116,0.0689359
15748,12:40:11.788000,-6.904581100000001,12.801245699999999,-2.0661073,0.37696840000000004,0.2812116,0.0689359
15749,12:40:11.799000,-6.2701445,13.543417000000002,-1.4987059,0.21814360000000002,0.1749211,0.15079179999999998
15750,12:40:11.807000,-5.2430763,13.1005077,-1.6806574,-0.018871900000000004,-0.0120035,0.226539
15751,12:40:11.817000,-4.295013,12.1548386,-2.3605812000000004,-0.5038984999999999,-0.2551276,0.2033262
15752,12:40:11.830000,-3.5528426,11.0751009,-2.5305624,-0.5038984999999999,-0.2551276,0.2033262
15753,12:40:11.836000,-3.296674,11.2115641,-1.8314854999999999,-0.6248497,-0.2453538,0.028618900000000003
15754,12:40:11.847000,-3.4044084999999997,11.125376699999999,-1.0174919,-0.6346235,-0.24046689999999998,-0.11188
15755,12:40:11.855000,-3.6581831,10.364052800000001,-0.3184151,-0.6346235,-0.24046689999999998,-0.11188
15756,12:40:11.867000,-4.1848845,8.8270416,0.3950263,-0.9583818999999999,-0.14639370000000002,-0.5553678000000001
15757,12:40:11.874000,-4.6445513,7.543805099999999,0.6823182,-0.9583818999999999,-0.14639370000000002,-0.5553678000000001
15758,12:40:11.884000,-4.4697824,6.885428,1.1467732,-1.2528187,-0.0755334,-0.6543279000000001
15759,12:40:11.894000,-4.354865599999999,6.418578599999999,1.431671,-1.4336346000000002,-0.0706465,-0.6922015
15760,12:40:11.903000,-3.8856222999999996,5.6213441,1.7620566000000002,-1.4434084999999999,-0.08164199999999999,-0.7508445
15761,12:40:11.915000,-3.2679447999999995,4.704403900000001,2.1738417,-1.1514151000000001,-0.0339946,-1.0526117
15762,12:40:11.924000,-2.8848889,3.9191399,2.3294580000000003,-1.1514151000000001,-0.0339946,-1.0526117
15763,12:40:11.933000,-2.4778922000000003,3.1386635,2.1738417,-0.9510514999999999,0.0197615,-1.2041061000000002
15764,12:40:11.945000,-2.0637131,2.5497153,2.0014665000000003,-0.786118,0.0735176,-1.3201704
15765,12:40:11.952000,-1.7596626,2.3318522,1.6710808000000001,-0.6578364000000001,0.12727370000000002,-1.3702613000000001
15766,12:40:11.963000,-1.6854455000000002,2.5018332,1.7716331000000003,-0.551546,0.2054644,-1.317727
15767,12:40:11.972000,-1.9464022,3.4475021,2.3677638,-0.43303820000000004,0.283655,-1.1808931999999999
15768,12:40:11.981000,-2.2552409,4.6230044,2.6430849999999997,-0.235118,0.3667327,-0.7361838
15769,12:40:11.991000,-2.7364547000000004,5.5902205,2.497045,-0.235118,0.3667327,-0.7361838
15770,12:40:12,-3.296674,6.0498877,2.4850745,-0.2314529,0.568318,-0.45152079999999994
15771,12:40:12.013000,-3.8688636,6.2653565,1.9200671999999999,-0.2436701,0.7137038,-0.40998199999999996
15772,12:40:12.020000,-4.2231898,6.085799199999999,0.9528513000000001,-0.2436701,0.7137038,-0.40998199999999996
15773,12:40:12.030000,-4.8576264,5.4753041,0.2753213,-0.312087,0.9775974000000001,-0.5834676
15774,12:40:12.040000,-5.8655419,4.630187,-0.2968683,-0.312087,0.9775974000000001,-0.5834676
15775,12:40:12.049000,-6.8734574,4.156155600000001,-0.5745836999999999,-0.3866125,1.0423491,-0.7227448000000001
15776,12:40:12.062000,-7.469587799999999,4.0939087999999995,-0.4261496,-0.546659,0.9104021999999999,-0.9047824000000001
15777,12:40:12.068000,-7.7401209,4.3237424,-0.5937365,-0.546659,0.9104021999999999,-0.9047824000000001
15778,12:40:12.081000,-7.8861612999999995,4.7451034000000005,-1.2138082000000001,-0.7152578,0.5231140000000001,-0.8889
15779,12:40:12.088000,-7.656328200000001,5.3460225999999995,-2.0876541,-0.7152578,0.5231140000000001,-0.8889
15780,12:40:12.097000,-7.1200494999999995,5.7865367,-2.9375593999999996,-0.7848963000000001,0.2946506,-0.8473610999999999
15781,12:40:12.107000,-6.717841099999999,5.1353421,-3.3469501000000004,-0.8362089,0.051526499999999996,-0.8168179
15782,12:40:12.118000,-6.686717999999999,3.8975928,-3.1219049,-0.7897831999999999,-0.1353981,-0.8485828999999999
15783,12:40:12.129000,-7.2565136,3.2320333,-2.5760503,-0.4452555,-0.38951779999999997,-0.8559133
15784,12:40:12.136000,-8.2596407,2.7771543999999997,-1.503494,-0.4452555,-0.38951779999999997,-0.8559133
15785,12:40:12.147000,-9.253191900000001,2.2624232999999996,-0.2513804,-0.1801402,-0.6839546999999999,-0.6005718000000001
15786,12:40:12.155000,-9.3058624,2.4539514,0.4476965,-0.1801402,-0.6839546999999999,-0.6005718000000001
15787,12:40:12.166000,-8.606784800000002,2.8106720000000003,0.0430938,-0.1654795,-0.8757662,-0.4429687
15788,12:40:12.178000,-8.0322018,2.4467689999999997,-0.9959450000000001,-0.09584089999999999,-1.178755,-0.3733301
15789,12:40:12.185000,-6.9811921,2.5952029,-2.2360882999999996,-0.09584089999999999,-1.178755,-0.3733301
15790,12:40:12.196000,-6.1671987,3.2487918999999996,-3.102752,0.0654274,-1.1127818,-0.49550299999999997
15791,12:40:12.205000,-5.6500731,3.8736517,-3.3373737,0.0654274,-1.1127818,-0.49550299999999997
15792,12:40:12.226000,-5.9924288,4.374018700000001,-2.1187775,0.41362029999999994,-0.8513315999999999,-0.3989864
15793,12:40:12.234000,-6.705870599999999,5.1353421,-0.9887628,0.41362029999999994,-0.8513315999999999,-0.3989864
15794,12:40:12.245000,-7.483952499999999,6.4137907,-0.1005521,0.47348500000000004,-0.9539568000000002,-0.1131017
15795,12:40:12.253000,-7.7496977,6.9141569,0.09815800000000001,0.47348500000000004,-0.9539568000000002,-0.1131017
15796,12:40:12.262000,-7.900525999999999,6.679535400000001,0.11731079999999999,0.3378731,-1.0468082,0.0005191
15797,12:40:12.275000,-7.639568799999999,5.6428905,0.0359115,0.14972670000000002,-1.0700212,0.018844999999999997
15798,12:40:12.281000,-7.3834004,4.900720099999999,0.004788199999999999,0.0361059,-1.0040478000000002,-0.033689300000000005
15799,12:40:12.295000,-6.746570599999999,4.4458413,0.30165640000000005,0.1888221,-0.7523715,-0.2413833
15800,12:40:12.301000,-6.4329433,4.2303724,0.9624277,0.1888221,-0.7523715,-0.2413833
15801,12:40:12.311000,-6.2581739,4.2782545,1.2449313,0.34153829999999996,-0.5813293,-0.3953212
15802,12:40:12.321000,-6.248597599999999,4.213614,1.0773443999999999,0.34153829999999996,-0.5813293,-0.3953212
15803,12:40:12.330000,-6.394638099999999,4.3931708,0.7924467,0.042214499999999995,-0.39807,-0.3574476
15804,12:40:12.343000,-6.282115,4.4697824,0.1915279,-0.12027550000000001,-0.29910990000000004,-0.2658179
15805,12:40:12.350000,-6.2246566,4.7451034000000005,-0.0670348,-0.12027550000000001,-0.29910990000000004,-0.2658179
15806,12:40:12.361000,-6.0642519,4.917479,-0.095764,-0.189914,-0.1341764,0.038392699999999995
15807,12:40:12.369000,-5.4824858,5.2502584,-0.22025709999999998,-0.189914,-0.1341764,0.038392699999999995
15808,12:40:12.379000,-5.0563364,5.5758562000000005,-0.2753213,-0.037197900000000006,-0.11951569999999999,0.21065660000000003
15809,12:40:12.389000,-4.6660986,5.5327621,-0.217863,-0.037197900000000006,-0.11951569999999999,0.21065660000000003
15810,12:40:12.398000,-4.4673886,5.0252137,-0.5171254,-0.0298675,-0.15738929999999998,0.22776079999999999
15811,12:40:12.412000,-4.318954,4.9964838,-0.42854369999999997,-0.3096435,-0.15128060000000002,0.1361311
15812,12:40:12.418000,-4.3979597,4.479359099999999,-0.2298335,-0.3096435,-0.15128060000000002,0.1361311
15813,12:40:12.427000,-4.3596539000000005,4.318954,-0.0406997,-0.812996,-0.0657596,0.1153617
15814,12:40:12.436000,-4.6230044,5.1353421,0.3926322,-0.812996,-0.0657596,0.1153617
15815,12:40:12.446000,-4.723557,5.7242899000000005,0.9432749,-0.9363908000000001,-0.0217773,0.20699139999999996
15816,12:40:12.459000,-5.1018243,6.854304300000001,1.3071779,-0.8557565999999999,0.025870099999999997,0.5955013000000001
15817,12:40:12.466000,-5.14013,7.6515393,1.6758691000000003,-0.8557565999999999,0.025870099999999997,0.5955013000000001
15818,12:40:12.475000,-5.2909579,7.6922393,1.8338796000000002,-0.6492844,0.035644,0.8483993000000001
15819,12:40:12.486000,-5.4729095,7.7736387,2.2480588,-0.4000515,0.0478613,1.0145546
15820,12:40:12.495000,-5.6931671999999995,7.0290742,2.2767880000000003,-0.1373797,0.0967304,1.0976322
15821,12:40:12.509000,-5.8200541,6.576589599999999,2.1618712,0.021445099999999998,0.31664169999999997,1.0854149
15822,12:40:12.514000,-5.7817483,6.4209727999999995,2.0325898999999996,0.021445099999999998,0.31664169999999997,1.0854149
15823,12:40:12.525000,-5.767384099999999,6.7896638,2.0972304,-0.0359761,0.5499921,1.0609803
15824,12:40:12.534000,-5.2526526,7.668298700000001,1.8841558,-0.0359761,0.5499921,1.0609803
15825,12:40:12.543000,-4.7905917,8.221335400000001,1.4891294,-0.055523800000000005,0.6379566,1.0634238
15826,12:40:12.557000,-4.4338708,8.6450911,0.9217280000000001,-0.14226660000000002,0.7393602,1.0646455
15827,12:40:12.563000,-4.1130619,8.542143800000002,0.4141791,-0.14226660000000002,0.7393602,1.0646455
15828,12:40:12.575000,-4.0532093,8.0441723,0.0646407,-0.2778786,0.8566461,0.9595767
15829,12:40:12.582000,-4.2686782,7.656328200000001,-0.2058925,-0.33896509999999996,0.8994066999999999,0.9278117
15830,12:40:12.591000,-4.876779099999999,7.8574319,-0.1556164,-0.3853908,0.9006284,0.9363638000000001
15831,12:40:12.602000,-5.5519152,8.0729008,0.2825037,-0.4269295999999999,0.8419853999999999,0.9876764000000001
15832,12:40:12.610000,-6.1169224,8.1806355,0.6320420999999999,-0.4733553,0.7503557,1.0279936
15833,12:40:12.621000,-6.2845092000000005,8.2069702,0.6799241,-0.488016,0.6648345999999999,1.0096676
15834,12:40:12.630000,-6.1288929,7.7042098,0.7038651,-0.488016,0.6648345999999999,1.0096676
15835,12:40:12.640000,-5.573462,7.3307304,0.4740316,-0.45625109999999997,0.6086351,0.9217030999999999
15836,12:40:12.650000,-4.8265028,7.1918726,0.2609568,-0.42326440000000004,0.5744267,0.7995300999999999
15837,12:40:12.660000,-3.7395822999999995,6.8519106,-0.07421710000000001,-0.3902777,0.5524355,0.6688050999999999
15838,12:40:12.672000,-2.7987015,6.5311017,-0.3758735,-0.312087,0.5451052,0.3951377
