,time,ax,ay,az,wx,wy,wz
7648,12:34:37.449000,-3.6150888999999995,5.4441805,2.9806529999999998,2.0409639,0.3765065,1.7268229
7649,12:34:37.453000,-3.3661027000000003,5.9589119,2.5616858,2.0409639,0.3765065,1.7268229
7650,12:34:37.457000,-3.006988,6.286903400000001,2.5401387000000004,2.0409639,0.3765065,1.7268229
7651,12:34:37.461000,-2.5952029,6.7800875,1.6423517,2.0409639,0.3765065,1.7268229
7652,12:34:37.466000,-2.7340607999999995,7.594080900000001,0.7900524999999999,2.0409639,0.3765065,1.7268229
7653,12:34:37.470000,-2.0278015,8.604391099999999,0.6607713000000001,2.0409639,0.3765065,1.7268229
7654,12:34:37.475000,-2.5377447999999996,8.7576132,0.28729190000000004,2.0409639,0.3765065,1.7268229
7655,12:34:37.479000,-3.6605771000000003,10.3568707,1.4819472,2.0409639,0.3765065,1.7268229
7656,12:34:37.483000,-3.5600247000000005,11.383939699999999,0.7876585,2.0409639,0.3765065,1.7268229
7657,12:34:37.489000,-3.5839657999999996,11.108617800000001,0.2729273,2.0409639,0.3765065,1.7268229
7658,12:34:37.494000,-5.0563364,11.4605513,0.5745836999999999,2.0409639,0.3765065,1.7268229
7659,12:34:37.498000,-5.1018243,11.099041900000001,-0.3184151,2.0409639,0.3765065,1.7268229
7660,12:34:37.512000,-4.3452892,11.1301651,0.1651928,1.4704162,0.4901273,1.5582242
7661,12:34:37.516000,-4.8600205999999995,11.8172712,-1.6974159,1.4704162,0.4901273,1.5582242
7662,12:34:37.548000,-4.5918813,11.5850439,-1.2233844999999999,1.2663875,0.3691761,1.4714813
7663,12:34:37.551000,-4.2926192,12.3008785,-1.0964973,1.2663875,0.3691761,1.4714813
7664,12:34:37.555000,-3.3349794999999998,12.6887226,-2.2552409,1.2663875,0.3691761,1.4714813
7665,12:34:37.558000,-4.1417909,12.573806800000002,-2.082866,1.2663875,0.3691761,1.4714813
7666,12:34:37.578000,-4.6086402,11.802907000000001,-1.7907859,1.2456180000000001,0.0295353,0.22776079999999999
7667,12:34:37.582000,-3.5648129,12.231450099999998,-1.8003622,1.2456180000000001,0.0295353,0.22776079999999999
7668,12:34:37.584000,-3.4810195,13.5960875,-2.0876541,1.2456180000000001,0.0295353,0.22776079999999999
7669,12:34:37.595000,-3.6988826,13.2896423,-2.1283537999999997,1.1772011999999998,-0.3601964,-0.07034119999999999
7670,12:34:37.603000,-2.7053316,12.8180046,-1.4412475,1.1772011999999998,-0.3601964,-0.07034119999999999
7671,12:34:37.612000,-2.4563452999999997,14.386138899999999,-0.7182297,0.45027219999999996,-0.7425977,-0.4612946
7672,12:34:37.623000,-3.5719953,12.9089804,-1.9224613000000002,0.45027219999999996,-0.7425977,-0.4612946
7673,12:34:37.632000,-2.7436373,11.228323,0.8283582,-0.2729917,-0.7303804,-0.441747
7674,12:34:37.641000,-2.4563452999999997,7.1439905,1.6878396,-0.9925903,-0.8525533000000002,-0.46251640000000005
7675,12:34:37.651000,-1.4915235,4.522452400000001,3.2368214,-1.8954484,-0.8928704,-0.2841439
7676,12:34:37.661000,-0.3184151,3.7874641000000002,4.237555,-2.3267187999999996,-0.9331875,-0.07156289999999998
7677,12:34:37.673000,0.28010959999999996,5.0036664,5.125765299999999,-2.2228717999999996,-0.9857218000000001,0.18744370000000002
7678,12:34:37.680000,-0.31362690000000004,6.6819296,4.9150844000000005,-1.6914196,-0.853775,0.4598894
7679,12:34:37.690000,-0.9241222,7.6706924,4.6158223,-1.1147633,-0.7059458000000001,0.6101621
7680,12:34:37.700000,-1.6160166,8.1830292,3.6198773,-0.5833109999999999,-0.4664867999999999,0.6174924
7681,12:34:37.709000,-1.5609524,8.5253859,2.6957552000000002,-0.0176502,-0.2209192,0.5221975
7682,12:34:37.718000,-2.0780778000000004,8.8581648,2.1618712,-0.0176502,-0.2209192,0.5221975
7683,12:34:37.728000,-2.8777068,8.568478599999999,1.7022042000000002,0.0788664,-0.09263760000000001,0.5625146
7684,12:34:37.739000,-3.4762315999999998,8.1064186,1.3311188,0.0238886,-0.0242208,0.5979448
7685,12:34:37.747000,-3.7659172999999995,8.0537481,1.3023897,0.0238886,-0.0242208,0.5979448
7686,12:34:37.757000,-3.5624189,8.2380943,1.163532,0.044657999999999996,-0.0181121,0.6492574000000001
7687,12:34:37.768000,-3.8425286,8.257247,0.36629709999999993,0.15094849999999999,0.028313599999999998,0.7201177
7688,12:34:37.779000,-3.7156413,9.042511,1.1419852,0.28900390000000004,0.05396990000000001,0.8740556
7689,12:34:37.793000,-3.8257697,9.246008900000001,0.11731079999999999,0.42095070000000007,0.11261289999999999,0.8264082
7690,12:34:37.796000,-3.6198773,9.310649900000001,0.3926322,0.42095070000000007,0.11261289999999999,0.8264082
7691,12:34:37.807000,-3.2679447999999995,9.605124499999999,-0.0813994,0.45882429999999996,0.2054644,0.7750954999999999
7692,12:34:37.815000,-3.1817572,9.4949961,-0.6847122,0.43194620000000006,0.2616639,0.7934215
7693,12:34:37.825000,-2.786731,9.7846823,-0.18195150000000002,0.31099499999999997,0.29587240000000004,0.7934215
7694,12:34:37.837000,-2.6861787,9.619488699999998,-0.5961305,0.2230305,0.2873203,0.7689869
7695,12:34:37.845000,-2.3414285,9.916357000000001,-0.34714429999999996,0.1436181,0.31664169999999997,0.6724703000000001
7696,12:34:37.854000,-2.2456646,9.631459199999998,-0.05745840000000001,0.1985959,0.29831579999999996,0.5906144
7697,12:34:37.863000,-2.0469543999999997,9.8181992,0.2130748,0.1985959,0.29831579999999996,0.5906144
7698,12:34:37.873000,-1.9080968,9.7559519,0.3447502,0.2596824,0.301981,0.5221975
7699,12:34:37.883000,-1.6662928,9.6362467,0.2944742,0.35131209999999996,0.3044245,0.42568100000000003
7700,12:34:37.892000,-1.6974159,9.234039300000001,-0.1747692,0.41239849999999995,0.31053309999999995,0.3230557
7701,12:34:37.902000,-1.3885771999999998,9.303467800000002,-0.1963161,0.4087334,0.29831579999999996,0.2619692
7702,12:34:37.913000,-1.1802906000000002,9.4303551,0.17716329999999997,0.5541191999999999,0.21279479999999998,0.1569005
7703,12:34:37.921000,-1.0725563,9.6386423,0.3950263,0.6103187,0.184695,0.11413989999999999
7704,12:34:37.932000,-1.0557975,9.6290646,1.0366447,0.609097,0.1810298,0.1495701
7705,12:34:37.942000,-1.1252263999999998,9.6290646,0.8690578999999999,0.5174673,0.1761429,0.1898872
7706,12:34:37.955000,-1.1012853,9.480630900000001,0.9648218000000001,0.3891857,0.1639256,0.2192087
7707,12:34:37.960000,-0.7541412,9.420779199999998,0.9935510000000001,0.3891857,0.1639256,0.2192087
7708,12:34:37.973000,-0.435726,9.3130436,1.0557975,0.2731214,0.1712559,0.27174299999999996
7709,12:34:37.980000,-0.6248598000000001,9.2029161,0.8020231,0.2731214,0.1712559,0.27174299999999996
7710,12:34:37.989000,-0.7158355,9.0999689,1.1084677,0.24502159999999998,0.19691229999999998,0.3572641
7711,12:34:38.001000,-0.7541412,9.2244616,0.8690578999999999,0.29511259999999995,0.2531118,0.4427852
7712,12:34:38.008000,-0.8115995,9.5380888,0.7421706,0.29511259999999995,0.2531118,0.4427852
7713,12:34:38.019000,-0.8379346,9.6961002,0.6200716,0.31832540000000004,0.270216,0.48798919999999996
7714,12:34:38.028000,-0.8690578999999999,10.079155900000002,0.5410663,0.31832540000000004,0.270216,0.48798919999999996
7715,12:34:38.038000,-0.8929988000000001,10.2778664,0.11731079999999999,0.34276,0.288542,0.5209758
7716,12:34:38.047000,-0.8522992,10.3975706,0.2944742,0.31466020000000006,0.3141983,0.5283062
7717,12:34:38.057000,-0.7828703,10.493334800000001,0.4309378,0.31588190000000005,0.3459632,0.5368583
7718,12:34:38.071000,-0.7206236999999999,10.3879938,0.4237555,0.21814360000000002,0.40094109999999994,0.5576277
7719,12:34:38.076000,-0.5889483,10.103097,0.35911479999999996,0.21814360000000002,0.40094109999999994,0.5576277
7720,12:34:38.087000,-0.5027608,9.980998,0.0526702,0.12529210000000002,0.4278191,0.5942795999999999
7721,12:34:38.096000,-0.6583770999999999,10.1749201,-0.07421710000000001,0.0837533,0.45347550000000003,0.6333749
7722,12:34:38.105000,-0.9432749,10.273078,0.055064300000000004,0.044657999999999996,0.47791000000000006,0.7042353
7723,12:34:38.117000,-0.7685057,10.1222496,0.4500906,0.044657999999999996,0.47791000000000006,0.7042353
7724,12:34:38.125000,-0.5937365,9.969026600000001,-0.3064446,-0.0237588,0.5719831999999999,0.6773571999999999
7725,12:34:38.135000,-0.5290958,9.7200413,-0.6559831,-0.0029894,0.6013046999999999,0.6883528
7726,12:34:38.145000,-0.3806617,10.0097265,-0.3710853,-0.0029894,0.6013046999999999,0.6883528
7727,12:34:38.155000,-0.6344361999999999,10.088731800000001,-0.5075489000000001,0.058097,0.47180140000000004,0.7848694
7728,12:34:38.168000,-0.6272539,9.892416,-0.5506426999999999,0.043436300000000004,0.4803535,0.7738738000000001
7729,12:34:38.174000,-0.6033128000000001,9.885233900000001,-0.6871063000000001,0.043436300000000004,0.4803535,0.7738738000000001
7730,12:34:38.187000,-0.3950263,9.7511644,-0.8259639999999999,0.0018975,0.451032,0.7750954999999999
7731,12:34:38.193000,-0.3758735,9.5309067,-0.8570873999999999,-0.0604107,0.4033846,0.7946432
7732,12:34:38.202000,-0.4165732,9.4375372,-0.8522992,-0.14348829999999999,0.3313025,0.7873128
7733,12:34:38.212000,-0.44530240000000004,9.236433,-0.9025753000000001,-0.14348829999999999,0.3313025,0.7873128
7734,12:34:38.223000,-0.31362690000000004,9.0832109,-0.8618754999999999,-0.17158810000000002,0.2421163,0.7641
7735,12:34:38.236000,-0.31362690000000004,8.865347900000002,-0.9432749,-0.176475,0.1944688,0.7567696
7736,12:34:38.241000,-0.0646407,8.8629541,-0.7421706,-0.1752533,0.12360850000000001,0.750661
7737,12:34:38.251000,-0.055064300000000004,8.9156237,-0.6535890000000001,-0.1740316,0.0735176,0.7555479
7738,12:34:38.261000,-0.007182300000000001,8.8916826,-0.4620611,-0.1740316,0.0735176,0.7555479
7739,12:34:38.270000,0.13406949999999998,8.834223699999999,-0.3184151,-0.1996879,0.022205000000000003,0.7579913
7740,12:34:38.282000,0.2298335,8.8868952,-0.2585627,-0.2485571,-0.0877507,0.7677651999999999
7741,12:34:38.289000,0.339962,8.7097311,-0.23462170000000002,-0.2766568,-0.12684600000000001,0.777539
7742,12:34:38.299000,0.3998145,8.556509,-0.2154689,-0.2766568,-0.12684600000000001,0.777539
7743,12:34:38.309000,0.5841601,8.408075300000002,-0.3710853,-0.298648,-0.1659414,0.7836477
7744,12:34:38.319000,0.6847122,8.1997881,-0.3998145,-0.3145305,-0.22458440000000002,0.8374037
7745,12:34:38.328000,0.8139936,8.099235499999999,-0.44530240000000004,-0.3145305,-0.22458440000000002,0.8374037
7746,12:34:38.339000,0.9696100000000001,8.0393839,-0.4261496,-0.2436701,-0.2685667,0.9229248
7747,12:34:38.351000,1.2209903999999998,8.070507000000001,-0.3782676,-0.18380539999999998,-0.2905578,0.9779026
7748,12:34:38.357000,1.3670303999999998,8.156694400000001,-0.3184151,-0.1324928,-0.30155329999999997,1.0512065000000002
7749,12:34:38.366000,1.3981537,8.1159954,-0.2513804,-0.1324928,-0.30155329999999997,1.0512065000000002
7750,12:34:38.376000,1.4675825,8.0393839,-0.27053309999999997,-0.1019495,-0.3088837,1.2112530000000001
7751,12:34:38.387000,1.6902337,7.9867134,-0.1747692,-0.0811801,-0.33454,1.2845567
7752,12:34:38.399000,1.7117807,8.0944481,-0.1556164,-0.048193400000000004,-0.352866,1.3541954
7753,12:34:38.408000,1.9679491999999998,8.1112061,-0.1316754,-0.0017676999999999999,-0.3699702,1.4262774
7754,12:34:38.416000,2.5353506,8.1351471,-0.6200716,0.0703143,-0.3540877,1.4714813
7755,12:34:38.425000,2.9136182999999996,8.1112061,-0.4931844,0.0703143,-0.3540877,1.4714813
7756,12:34:38.435000,3.0165646,8.008260700000001,-0.45248469999999996,0.103301,-0.3650833,1.5117985
7757,12:34:38.444000,2.8896773,7.778427099999999,-0.42854369999999997,0.0971924,-0.39929169999999997,1.5899892
7758,12:34:38.454000,3.2033041,7.7592740000000004,-0.5721896,0.0471015,-0.39073959999999996,1.6791754
7759,12:34:38.465000,3.3900437000000005,7.6108398,-0.5386721999999999,-0.020093700000000003,-0.45182609999999995,1.7744703000000002
7760,12:34:38.473000,3.5935422999999993,7.354671499999999,-0.5913424,-0.020093700000000003,-0.45182609999999995,1.7744703000000002
7761,12:34:38.483000,3.9550512,6.8399401,-1.0342506999999999,-0.07384980000000001,-0.5275733,1.8685435000000001
7762,12:34:38.493000,4.5870929,6.5502539,-0.8834224,-0.07384980000000001,-0.5275733,1.8685435000000001
7763,12:34:38.502000,4.8336854,6.2150807,-0.6895005,-0.0701846,-0.6118726,1.9186343999999997
7764,12:34:38.514000,4.8408675,6.0618582000000005,-0.6703475999999999,0.005562699999999999,-0.6998371,2.0114858
7765,12:34:38.522000,5.0323954,5.9493356,-0.8211759,0.044657999999999996,-0.6766243000000001,2.0860114
7766,12:34:38.532000,5.403481,5.5279741,-1.0342506999999999,0.0361059,-0.7132761,2.2118495
7767,12:34:38.542000,5.872724099999999,5.3891163,-0.7972349,0.0361059,-0.7132761,2.2118495
7768,12:34:38.550000,6.112133999999999,5.0323954,-1.1778966,0.0910837,-0.813458,2.2778227
7769,12:34:38.563000,6.725023299999999,4.4841470999999995,-1.8482443,0.161944,-0.8659924000000001,2.3731177000000003
7770,12:34:38.571000,7.2469368,4.3261366,-2.0996243999999997,0.22669570000000003,-0.8794314000000001,2.4280956000000002
7771,12:34:38.581000,7.6036577,4.3261366,-2.9255888,0.42095070000000007,-0.9869435,2.7152019
7772,12:34:38.590000,7.5629577999999995,4.8073505999999995,-3.2320333,0.42095070000000007,-0.9869435,2.7152019
7773,12:34:38.601000,8.2979469,5.2430763,-3.2535803,0.4759285,-1.0370344999999999,2.9485523999999996
7774,12:34:38.610000,8.9970226,5.4776978,-3.7419762999999997,0.4759285,-1.0370344999999999,2.9485523999999996
7775,12:34:38.619000,9.377684599999998,5.774566200000001,-3.4762315999999998,0.46126769999999995,-1.052917,2.8838005
7776,12:34:38.633000,9.9498739,6.734600099999999,-5.6668315,0.3965161,-0.9331875,2.7445235
7777,12:34:38.638000,12.8587036,9.406414,-3.272733,0.3965161,-0.9331875,2.7445235
7778,12:34:38.647000,16.983735999999997,16.8281193,2.7819428,0.31588190000000005,-0.7926886,2.5966942000000004
7779,12:34:38.657000,11.5874376,20.658678100000003,-1.4268829,0.31832540000000004,0.008765899999999998,1.9051953999999998
7780,12:34:38.667000,6.3826675,17.962921100000003,-1.3287247,-0.0885105,1.6287791999999999,0.0335058
7781,12:34:38.677000,5.9636998,14.563303,-0.2825037,-1.5118253000000001,1.6898656000000003,-1.6976848000000002
7782,12:34:38.686000,5.7338667,13.572146400000001,-0.1747692,-2.5014262,0.4901273,-1.579177
7783,12:34:38.696000,6.5718012,13.5194759,0.3950263,-2.2436414,0.16148210000000002,-0.8339221
7784,12:34:38.706000,6.562224400000001,12.2577858,1.3957596,-1.6425503000000001,0.12360850000000001,-0.8742392
7785,12:34:38.716000,6.289297599999999,11.7454481,1.7069923999999999,-0.6248497,-0.5190212000000001,-1.3213921999999998
7786,12:34:38.729000,6.3683023,10.6441631,2.5018332,-0.6248497,-0.5190212000000001,-1.3213921999999998
7787,12:34:38.736000,6.607712299999999,10.3425074,3.0189586,-0.6737189,-0.7511498000000001,-1.0978156000000001
7788,12:34:38.746000,6.6603823,9.3633204,2.8824949,-0.8472044,-0.8757662,-0.8241483000000001
7789,12:34:38.755000,6.945280599999999,8.3362522,2.8561597,-1.2540405000000001,-0.9368526,-0.6005718000000001
7790,12:34:38.766000,6.8830342,7.682663000000001,2.61675,-1.6230028,-0.9160833,-0.3989864
7791,12:34:38.774000,6.792058,6.9883742,2.5209861,-1.8135926,-0.8036842,-0.21084009999999997
7792,12:34:38.784000,6.6627769,7.1751142,2.52338,-1.6156723,-0.5373471,0.0396144
7793,12:34:38.796000,6.6148949,7.4360704,2.4419807999999996,-1.6156723,-0.5373471,0.0396144
7794,12:34:38.803000,6.4784312,7.5461993000000005,2.2719998,-1.1807367,-0.2526842,0.1446832
7795,12:34:38.814000,6.8255754,7.7999735,1.1898671,-0.9608253000000001,-0.0877507,0.1153617
7796,12:34:38.823000,7.100896799999999,7.9651666,1.3790008999999999,-0.6480626,0.0417526,0.0481665
7797,12:34:38.832000,6.9213395,8.3434343,1.0318565,-0.3536258,0.22012510000000002,-0.027580700000000003
7798,12:34:38.845000,6.8973985,8.3793459,0.6823182,-0.18869229999999998,0.3325242,-0.1131017
7799,12:34:38.851000,7.0506210000000005,8.1159954,0.459667,-0.07140629999999999,0.40094109999999994,-0.1864055
7800,12:34:38.863000,7.0171037,7.941225500000001,0.11731079999999999,-0.07140629999999999,0.40094109999999994,-0.1864055
7801,12:34:38.871000,7.0003443,7.6922393,-0.0502761,0.1240704,0.48890559999999994,-0.2572658
7802,12:34:38.880000,7.0673794999999995,7.342700999999999,-0.26813909999999996,0.1240704,0.48890559999999994,-0.2572658
7803,12:34:38.892000,7.110473599999999,6.993162599999999,-0.411785,0.21203490000000003,0.48890559999999994,-0.2902525
7804,12:34:38.899000,7.1463852,6.7154469,-0.557825,0.2828952,0.47791000000000006,-0.3171305
7805,12:34:38.910000,7.062591599999999,6.6316533,-0.5937365,0.3390948,0.464471,-0.3207957
7806,12:34:38.919000,6.9548569,6.665171099999999,-0.4046027,0.39529440000000005,0.4082715,-0.30124809999999996
7807,12:34:38.929000,6.7226295,6.617289100000001,-0.2729273,0.41362029999999994,0.35940229999999995,-0.2841439
7808,12:34:38.939000,6.713053200000001,6.7992406,-0.0430938,0.4001813,0.33496770000000003,-0.3000264
7809,12:34:38.948000,6.514342299999999,6.9811921,0.1484341,0.3842988,0.3068679,-0.3171305
7810,12:34:38.960000,6.289297599999999,7.292425200000001,0.23462170000000002,0.3684163,0.26777259999999997,-0.31224359999999995
7811,12:34:38.968000,6.0905871,7.5461993000000005,0.36869120000000005,0.31710370000000004,0.23967280000000002,-0.3843257
7812,12:34:38.978000,6.0881929,7.682663000000001,0.45727290000000004,0.2682345,0.20424260000000002,-0.43319480000000005
7813,12:34:38.989000,5.855965599999999,7.7808208,0.6152834,0.2108132,0.19202539999999998,-0.49305959999999993
7814,12:34:38.997000,5.7458372,8.1040249,0.7565352,0.2108132,0.19202539999999998,-0.49305959999999993
7815,12:34:39.013000,5.9708824,8.429621699999998,0.6871063000000001,0.14972670000000002,0.22379029999999997,-0.6922015
7816,12:34:39.018000,5.1616769,8.3506165,0.35911479999999996,0.0532101,0.2775464,-0.7960484999999999
7817,12:34:39.028000,5.1760416,7.608446099999999,0.26813909999999996,-0.056745500000000004,0.3361894,-0.9426559999999999
7818,12:34:39.035000,5.0754895,7.682663000000001,0.4093909,-0.056745500000000004,0.3361894,-0.9426559999999999
7819,12:34:39.045000,5.0946422,7.8334908,0.15082820000000002,0.076423,0.2873203,-1.1271372
7820,12:34:39.054000,4.9893022,8.0729008,0.09815800000000001,0.2108132,0.3190852,-1.2212104
7821,12:34:39.065000,4.7690444,8.724096300000001,0.007182300000000001,0.3464252,0.3374112,-1.3140618
7822,12:34:39.077000,4.673281200000001,9.116727800000001,-0.17716329999999997,0.6445272,0.3361894,-1.4398999
7823,12:34:39.084000,4.237555,9.420779199999998,-0.6248598000000001,0.6445272,0.3361894,-1.4398999
7824,12:34:39.094000,3.9981451,9.5045719,-0.4500906,0.7410438,0.3691761,-1.5632945
7825,12:34:39.103000,3.7826760000000004,9.7368002,-0.1867397,0.9414074,0.2604422,-1.9566914
7826,12:34:39.113000,3.6079068,10.3113832,-0.5314899000000001,0.9414074,0.2604422,-1.9566914
7827,12:34:39.126000,3.3541322,10.9003325,-1.0462211,1.0660238000000002,0.1761429,-2.3684142
7828,12:34:39.133000,3.2655509,11.4964619,-0.7852644,1.0660238000000002,0.1761429,-2.3684142
7829,12:34:39.143000,2.5545032,12.0255585,-1.1587437,0.9939418,0.0796262,-2.8375583
7830,12:34:39.152000,1.9176731,12.482831,-0.7876585,0.9939418,0.0796262,-2.8375583
7831,12:34:39.161000,1.0749503,12.490013099999999,-1.1707143,0.8742122999999999,0.0661872,-2.9780571
7832,12:34:39.176000,1.1587437,12.0590754,-1.041433,0.7141656999999999,0.030757099999999996,-3.1222212000000003
7833,12:34:39.180000,1.3694245,12.269756300000001,-0.7589293,0.5125804,-0.10729839999999999,-3.2724941000000003
7834,12:34:39.191000,1.4173065,12.8539162,-0.4261496,0.4343897,-0.2917795,-3.3629019
7835,12:34:39.200000,1.5058881000000002,13.452441199999997,-0.22265120000000002,0.4185072,-0.3821875,-3.4032190000000004
7836,12:34:39.210000,1.9990726000000003,13.7062149,0.0622466,0.0861968,-0.4725955,-3.3983321
7837,12:34:39.219000,1.9511904999999998,13.869013800000001,0.2633509,0.0861968,-0.4725955,-3.3983321
7838,12:34:39.229000,1.673475,14.0581484,0.4141791,-0.18258370000000002,-0.46159989999999995,-3.3433545
7839,12:34:39.242000,1.7524803,13.957595800000002,0.1484341,-0.9217299999999999,-0.43227840000000006,-3.1662035
7840,12:34:39.249000,2.1475065,13.5051107,0.3830558,-0.9217299999999999,-0.43227840000000006,-3.1662035
7841,12:34:39.261000,3.2870975,13.0789614,0.9863687,-1.1550803,-0.5080256,-3.1466557999999996
7842,12:34:39.268000,4.1537614000000005,12.731817199999998,1.623199,-1.2833618999999998,-0.5727773,-3.0953434
7843,12:34:39.279000,4.295013,12.387066800000001,2.4874685000000003,-1.4153087,-0.31499240000000006,-2.8302281000000002
7844,12:34:39.292000,3.5791779000000004,11.9058533,2.2097533,-1.4617343999999999,0.017318,-2.6946161
7845,12:34:39.297000,2.4994389999999997,11.7717838,3.0620522,-1.3676612,0.3044245,-2.5663345
7846,12:34:39.313000,1.2808429,11.3528156,2.8705244,-1.3676612,0.3044245,-2.5663345
7847,12:34:39.317000,1.4125183000000001,11.678414300000002,4.948602200000001,-1.3676612,0.3044245,-2.5663345
7848,12:34:39.327000,2.2097533,9.3944426,3.4068023999999997,-1.666985,0.7234776999999999,-2.247463
7849,12:34:39.336000,1.5010998,8.221335400000001,3.9718099000000002,-1.666985,0.7234776999999999,-2.247463
7850,12:34:39.345000,-0.22025709999999998,6.5526485,3.7419762999999997,-1.9504261000000003,0.9238413000000001,-1.7770971999999998
7851,12:34:39.356000,-0.8115995,5.8272367,3.9239278,-2.4904306,1.2830298,-0.9903035
7852,12:34:39.365000,-1.6184107,7.1918726,3.4762315999999998,-2.4904306,1.2830298,-0.9903035
7853,12:34:39.374000,-2.1211715,7.8861612999999995,2.7675784,-2.4085748,1.3441162,-1.0990374
7854,12:34:39.384000,-2.2504527999999997,9.298680300000001,2.8202484,-2.4085748,1.3441162,-1.0990374
7855,12:34:39.394000,-2.5401387000000004,11.1205893,1.8266973000000002,-1.9944084,1.2329388000000001,-1.4264609
7856,12:34:39.408000,-2.4515569,10.871602099999999,3.7084589,-0.9009606,1.1046572000000001,-2.3561968999999996
7857,12:34:39.413000,-2.7603958,10.8380852,2.7580017999999997,-0.9009606,1.1046572000000001,-2.3561968999999996
7858,12:34:39.424000,-3.4666550000000003,13.0693846,1.6399577,-0.4501424,1.2060608999999998,-2.7288243999999997
7859,12:34:39.442000,-3.6557887000000004,14.2041883,1.4292768999999999,-0.2888741,1.2194998,-2.9817223999999998
7860,12:34:39.443000,-4.479359099999999,13.8977432,0.48121379999999997,-0.2888741,1.2194998,-2.9817223999999998
7861,12:34:39.452000,-5.2909579,12.183569,0.3974204,-0.5478808000000001,1.1290917,-3.9077933
7862,12:34:39.461000,-4.601458099999999,10.443059,0.7421706,-0.5478808000000001,1.1290917,-3.9077933
7863,12:34:39.471000,-4.2543135,11.2809935,0.7349883,-1.3566657,0.5805353,-4.3720508
7864,12:34:39.481000,-4.1010914,12.8994036,-0.15082820000000002,-1.3566657,0.5805353,-4.3720508
7865,12:34:39.492000,-3.7707055,13.196271900000001,-0.82357,-1.486169,0.5377748,-4.6860352
7866,12:34:39.501000,-3.7539468,12.4995899,-1.2138082000000001,-1.4800603,0.4681362,-5.174727
7867,12:34:39.509000,-3.9550512,11.7095366,-1.5609524,-1.7903796000000003,0.4803535,-5.9480815
7868,12:34:39.520000,-4.2519193,11.2091703,-2.0086489,-1.7903796000000003,0.4803535,-5.9480815
7869,12:34:39.529000,-4.5416055,10.8404789,-2.640691,-2.1715592999999997,0.5670963000000001,-6.076363099999999
7870,12:34:39.539000,-4.529635,10.7782326,-2.2935464,-3.2246900000000003,0.5157837000000001,-6.103241000000001
7871,12:34:39.550000,-2.8872831000000003,9.420779199999998,-2.4132514,-3.2246900000000003,0.5157837000000001,-6.103241000000001
7872,12:34:39.559000,-2.300729,8.3769512,-2.3917048,-3.7695812999999996,0.464471,-6.2559571
7873,12:34:39.572000,-2.0685015,7.953196000000001,-1.9464022,-4.214290599999999,0.8236595,-6.689671499999999
7874,12:34:39.578000,-1.5992579,7.922072900000001,-1.6327753999999999,-4.214290599999999,0.8236595,-6.689671499999999
7875,12:34:39.590000,-0.5506426999999999,7.539017200000001,-0.8810283000000001,-4.3951068,0.9262847,-6.8790393
7876,12:34:39.597000,0.7469588,6.7705116,-0.6823182,-4.5221663,1.0228014,-7.112389599999999
7877,12:34:39.606000,1.7476921000000003,5.927788700000001,-0.9528513000000001,-4.7054257,1.1364222,-7.3652878
7878,12:34:39.618000,2.1786296000000003,5.0036664,-1.4077301000000002,-4.9998627,1.3221252000000001,-7.5680947
7879,12:34:39.626000,2.1235654,3.9047748999999996,-1.7955738999999997,-5.3529425,1.5163801000000001,-7.6670547000000004
7880,12:34:39.638000,2.2887584999999997,2.9734707,-2.2025707000000003,-6.255800700000001,1.6800918999999999,-7.5485473
7881,12:34:39.659000,2.5161977,2.4276164000000002,-2.8513715,-7.582598700000001,1.7326262,-7.423930599999999
7882,12:34:39.661000,2.7580017999999997,2.135536,-3.7228234,-7.582598700000001,1.7326262,-7.423930599999999
7883,12:34:39.665000,3.6438181000000003,2.133142,-4.290225,-7.582598700000001,1.7326262,-7.423930599999999
7884,12:34:39.674000,5.0108485,1.6351695,-4.9964838,-9.1965036,1.6923091000000001,-7.368952799999999
7885,12:34:39.688000,5.7314725,0.019152799999999998,-6.4856133,-10.026057199999999,1.8938944,-7.2699928
7886,12:34:39.694000,6.0163698,-1.1348027,-7.5102877999999995,-10.026057199999999,1.8938944,-7.2699928
7887,12:34:39.703000,5.5064268,-2.645479,-9.2053099,-10.696786900000001,2.4766592999999997,-6.925465099999999
7888,12:34:39.713000,5.597403,-3.5815718,-10.0767622,-10.696786900000001,2.4766592999999997,-6.925465099999999
7889,12:34:39.723000,5.853571400000001,-3.1386635,-11.1014357,-10.4023504,2.6867968999999996,-6.8411655
7890,12:34:39.735000,5.7865367,-3.6605771000000003,-12.535500500000001,-9.3760977,3.0081117,-6.437995
7891,12:34:39.743000,6.0115819,-4.2399492,-13.9384432,-9.3760977,3.0081117,-6.437995
7892,12:34:39.753000,6.004399299999999,-4.7259512,-15.236043900000002,-8.2777624,3.1803756,-6.210753400000001
7893,12:34:39.761000,5.678801999999999,-5.2718053,-15.9470921,-8.2777624,3.1803756,-6.210753400000001
7894,12:34:39.771000,5.6811967,-5.6596494,-16.5695572,-7.8135056,3.2072535,-6.0201635
7895,12:34:39.780000,5.4346042,-6.1983213,-17.3308792,-7.5215119999999995,3.0924110000000002,-5.7855916
7896,12:34:39.790000,5.913424,-6.5239191,-18.2909145,-7.2576189,2.9665728,-5.4520593
7897,12:34:39.801000,5.5543089000000005,-6.3802729000000005,-19.373048800000003,-6.230144,2.4192381000000003,-4.8277555
7898,12:34:39.810000,4.9869075,-5.9230003,-20.5581264,-6.230144,2.4192381000000003,-4.8277555
7899,12:34:39.820000,4.776227,-5.4896684,-21.5325241,-5.5997319,2.0050719,-4.3903766
7900,12:34:39.828000,4.3285303,-6.334785500000001,-21.1494675,-4.9961977,1.5371493999999999,-3.9737668
7901,12:34:39.838000,4.0388446,-6.4305490999999995,-21.379301100000003,-4.3999934000000005,0.9287281999999999,-3.6084697
7902,12:34:39.849000,3.2942801,-6.9859800000000005,-20.4791203,-3.7280425999999998,0.3484067,-3.2089640999999998
7903,12:34:39.858000,3.3972260999999997,-7.321154099999999,-19.3658638,-2.9730136000000003,-0.1549458,-2.7288243999999997
7904,12:34:39.868000,2.7077258,-6.4927959,-18.2286682,-1.3627744,-1.2581674999999999,-2.1252902000000002
7905,12:34:39.878000,2.0421662,-5.2239237,-16.4115467,-0.6883796,-1.5855911,-1.6304896999999998
7906,12:34:39.887000,1.7405096999999998,-3.9095633000000003,-14.694977800000002,-0.6883796,-1.5855911,-1.6304896999999998
7907,12:34:39.901000,1.139591,-2.2863643,-12.9496803,-0.18380539999999998,-1.8959103,-1.2920706
7908,12:34:39.907000,0.5003666,-1.8817616999999998,-11.5180092,0.23646950000000003,-2.2282207,-0.8950085999999999
7909,12:34:39.923000,0.9456690000000001,-2.0182252,-10.443059,0.3733032,-2.2098949,-0.8754609
7910,12:34:39.926000,0.8451169,-1.3478776000000001,-9.116727800000001,0.3733032,-2.2098949,-0.8754609
7911,12:34:39.937000,0.8499051,-0.6583770999999999,-7.6754804000000005,0.6530793,-1.6613383000000002,-0.9377690999999999
7912,12:34:39.945000,0.5650073,-0.4740316,-6.4305490999999995,0.6530793,-1.6613383000000002,-0.9377690999999999
7913,12:34:39.954000,0.2825037,-0.095764,-5.6620436,0.6078752,-0.9087529000000001,-1.0587204
7914,12:34:39.966000,0.3830558,-0.2777155,-5.5710678,0.2535737,-0.5715555999999999,-1.0281771
7915,12:34:39.974000,0.6871063000000001,-0.5362781,-5.6069794,0.2535737,-0.5715555999999999,-1.0281771
7916,12:34:39.984000,0.1580105,-0.7708998,-6.739388000000001,-0.7592399999999999,-0.0181121,-1.0245119
7917,12:34:39.993000,0.3830558,-1.3311188,-8.319493300000001,-0.7592399999999999,-0.0181121,-1.0245119
7918,12:34:40.003000,0.7014709,-2.1427186000000003,-9.7080698,-1.2369362,0.1883602,-0.9157780000000001
7919,12:34:40.014000,0.3208092,-2.7029376,-10.7375326,-1.6449938999999998,0.5170054000000001,-0.870574
7920,12:34:40.022000,0.265745,-2.640691,-11.431821800000002,-1.6449938999999998,0.5170054000000001,-0.870574
7921,12:34:40.032000,-0.1651928,-2.6215382000000003,-11.7526312,-1.4959428,0.6733868000000001,-0.8339221
7922,12:34:40.042000,-0.6200716,-2.7987015,-11.7909365,-1.2283841,0.762573,-0.7936051
7923,12:34:40.052000,-0.8139936,-2.7029376,-11.9130354,-0.7030404,0.6025264,-0.708084
7924,12:34:40.061000,-0.9001811,-2.6287205,-12.1308985,-0.7030404,0.6025264,-0.708084
7925,12:34:40.071000,-0.9743982,-2.7747604999999997,-12.188357400000001,-0.5686501,0.4082715,-0.6970884
7926,12:34:40.081000,-1.3263308,-2.7053316,-12.288909,-0.4867943,0.211573,-0.7093056999999999
7927,12:34:40.091000,-1.431671,-2.3629756,-12.1596279,-0.3890559,0.028313599999999998,-0.7203013
7928,12:34:40.100000,-1.4915235,-2.0852599,-11.992040600000001,-0.28643070000000004,-0.1659414,-0.7312968000000001
7929,12:34:40.112000,-1.4436415,-1.8434560000000002,-12.0423174,-0.23633979999999996,-0.36752670000000004,-0.7471793000000001
7930,12:34:40.120000,-1.3191483999999998,-2.0134369999999997,-11.8723364,-0.2204573,-0.5397906,-0.8058224
7931,12:34:40.132000,-0.895393,-1.9942843000000001,-11.5156155,-0.0127633,-0.7389325,-1.0293988
7932,12:34:40.140000,-0.6655594,-1.9440081000000002,-11.1157999,0.23036089999999998,-0.7487063,-1.1222502
7933,12:34:40.149000,-0.32559740000000004,-1.9464022,-10.522064199999999,0.4966979,-0.6925068,-1.2077712999999999
7934,12:34:40.158000,0.0885817,-2.0852599,-9.775105499999999,0.4966979,-0.6925068,-1.2077712999999999
7935,12:34:40.168000,0.5506426999999999,-2.4874685000000003,-9.076027900000001,0.7019484,-0.6130943,-1.2590839
7936,12:34:40.181000,1.0103096999999999,-2.8657362,-8.4703207,0.8742122999999999,-0.4273915,-1.2370927
7937,12:34:40.187000,1.2449313,-3.1410575,-8.046566,0.8742122999999999,-0.4273915,-1.2370927
7938,12:34:40.197000,1.4963118,-3.4307434999999997,-7.835885,0.7361568000000001,-0.2477973,-1.0379509
7939,12:34:40.208000,2.0876541,-3.7683115,-7.8861612999999995,0.7361568000000001,-0.2477973,-1.0379509
7940,12:34:40.218000,2.3126995999999997,-4.1058793,-7.948408099999999,0.5724451999999999,-0.1671631,-0.8937868
7941,12:34:40.227000,2.3510051,-3.9047748999999996,-8.1255713,0.39895949999999997,-0.0425467,-0.7276316999999999
7942,12:34:40.236000,2.1786296000000003,-3.1985159,-8.240488099999999,0.2169219,0.1016174,-0.5272680999999999
7943,12:34:40.248000,1.6950218999999997,-2.5377447999999996,-8.3458281,0.0690926,0.2592205,-0.3427869
7944,12:34:40.256000,1.1324087,-2.2360882999999996,-8.7097311,-0.2314529,0.4681362,-0.017806799999999998
7945,12:34:40.268000,0.5314899000000001,-2.3390346,-9.186157199999998,-0.3133087,0.5512138000000001,0.023732
7946,12:34:40.276000,0.059852499999999996,-2.4036752999999997,-9.5404844,-0.3133087,0.5512138000000001,0.023732
7947,12:34:40.285000,-0.36629709999999993,-2.6311145000000002,-10.0911264,-0.28643070000000004,0.6037481,0.031062299999999998
7948,12:34:40.298000,-0.6009188,-2.5688679,-10.258712800000001,-0.1166103,0.6367348,0.005406
7949,12:34:40.304000,-0.7038651,-2.9351648999999997,-10.481364300000001,-0.072628,0.5768701,-0.0446849
7950,12:34:40.315000,-0.8211759,-3.3277972,-10.4622116,-0.051858600000000005,0.4974577,-0.10577139999999999
7951,12:34:40.325000,-0.775688,-3.3613148,-10.5579748,-0.0017676999999999999,0.419267,-0.1314277
7952,12:34:40.334000,-0.7373824000000001,-3.4522904999999997,-10.2922306,0.045879699999999995,0.3190852,-0.1729665
7953,12:34:40.348000,-0.6104951999999999,-2.9662883,-9.933116,0.056875300000000004,0.2347859,-0.2059532
7954,12:34:40.352000,-0.2585627,-2.6502673999999997,-9.4040203,0.056875300000000004,0.2347859,-0.2059532
7955,12:34:40.367000,-0.05745840000000001,-2.3988869,-8.503838499999999,0.032440699999999996,0.08940010000000001,-0.2536006
7956,12:34:40.373000,-0.0885817,-2.8034897,-7.8550382,-0.004211199999999999,0.0588568,-0.2865873
7957,12:34:40.382000,0.3830558,-2.3581872,-8.2668228,-0.004211199999999999,0.0588568,-0.2865873
7958,12:34:40.395000,-0.08379349999999999,-2.0900483,-8.7959194,0.020223400000000002,0.11139120000000001,-0.2597093
7959,12:34:40.401000,-0.6488007,-1.9344318,-9.277133000000001,0.020223400000000002,0.11139120000000001,-0.2597093
7960,12:34:40.413000,-1.1826848,-2.130748,-9.7296171,-0.2461136,0.1040608,-0.2633744
7961,12:34:40.421000,-1.2856309,-2.7125139,-9.854109800000002,-0.32674770000000003,0.0588568,-0.40020809999999996
7962,12:34:40.434000,-1.3119662,-2.6119618,-10.038456,-0.4000515,-0.0608726,-0.48328580000000004
7963,12:34:40.441000,-1.1348027,-2.5473211,-9.890022300000002,-0.4000515,-0.0608726,-0.48328580000000004
7964,12:34:40.450000,-0.8546931999999999,-2.4395863999999996,-9.5404844,-0.42937299999999995,-0.1634979,-0.5345984
7965,12:34:40.463000,-0.5171254,-2.5712618999999997,-9.011387800000001,-0.4867943,-0.33209659999999996,-0.6677668999999999
7966,12:34:40.469000,-0.241804,-2.2241178,-8.9347773,-0.4867943,-0.33209659999999996,-0.6677668999999999
7967,12:34:40.479000,-0.12449310000000001,-1.5130703,-9.188550900000001,-0.5124506,-0.3406487,-0.7459576
7968,12:34:40.489000,-0.2633509,-1.0055215,-9.506965600000001,-0.6443974,-0.20137149999999998,-0.7691705
7969,12:34:40.498000,-0.2394099,-1.0581916999999998,-9.6003361,-0.7922267,-0.1500589,-0.753288
7970,12:34:40.512000,-0.11252260000000001,-1.4125183000000001,-9.6530056,-0.913178,-0.1476154,-0.7789443
7971,12:34:40.518000,0.12449310000000001,-1.5441937,-9.8565054,-0.913178,-0.1476154,-0.7789443
7972,12:34:40.528000,0.5793719,-1.8290915,-9.9833918,-0.9596037000000001,-0.1329547,-0.7997137
7973,12:34:40.537000,0.9959450000000001,-2.1977827999999997,-10.0983086,-0.9596037000000001,-0.1329547,-0.7997137
7974,12:34:40.547000,1.4556118999999998,-2.3462167000000003,-10.0576086,-0.9522732,-0.0559857,-0.6787625
7975,12:34:40.555000,1.7596626,-1.8769734,-9.6458244,-0.9522732,-0.0559857,-0.6787625
7976,12:34:40.566000,1.7165686999999998,-1.3694245,-9.6362467,-0.9889251,-0.0120035,-0.572472
7977,12:34:40.578000,1.8362738,-1.5082823,-9.5500603,-1.0414596,0.1309389,-0.3940995
7978,12:34:40.585000,1.7883917,-1.7261453000000002,-10.095913900000001,-1.0414596,0.1309389,-0.3940995
7979,12:34:40.597000,1.8745793999999998,-1.6567163,-9.8780508,-1.0341291,0.08573489999999999,-0.1900707
7980,12:34:40.605000,1.6543223000000002,-1.9511904999999998,-9.4662657,-1.0341291,0.08573489999999999,-0.1900707
7981,12:34:40.615000,1.0174919,-1.0605857,-9.8565054,-0.8704174000000001,0.1028391,0.1007009
7982,12:34:40.628000,1.6950218999999997,-0.4548787,-9.648218199999999,-0.7824528000000001,-0.0828638,0.127579
7983,12:34:40.633000,1.1874731,-0.2825037,-9.5189371,-0.7824528000000001,-0.0828638,0.127579
7984,12:34:40.645000,0.9887628,-0.5602191,-9.0832109,-0.8508697000000001,-0.158611,0.109253
7985,12:34:40.654000,0.9121516,-0.6847122,-9.3154383,-0.9180648000000001,-0.2453538,0.0970357
7986,12:34:40.666000,0.0861876,-0.3040505,-9.377684599999998,-0.9107344,-0.31865759999999993,0.13979629999999998
7987,12:34:40.676000,-0.045487900000000005,-0.3998145,-9.2651625,-0.9620470999999999,-0.33209659999999996,0.24608670000000002
7988,12:34:40.683000,0.071823,-0.7852644,-9.415989900000001,-0.9620470999999999,-0.33209659999999996,0.24608670000000002
7989,12:34:40.694000,0.13885770000000003,-0.9983392,-9.619488699999998,-1.0915504999999999,-0.44449570000000005,0.1532353
7990,12:34:40.701000,-0.5243076,-0.3495384,-10.0264864,-1.0915504999999999,-0.44449570000000005,0.1532353
7991,12:34:40.712000,-0.5195194000000001,0.045487900000000005,-10.4957294,-1.1269805,-0.3846309,0.2961776
7992,12:34:40.728000,-0.20110429999999999,0.35432659999999994,-9.6099119,-1.1966192,-0.45060429999999996,0.1886654
7993,12:34:40.743000,0.0430938,0.557825,-8.898864699999999,-1.648659,-0.4469391,0.1446832
7994,12:34:40.751000,-0.045487900000000005,0.4716375,-8.3386459,-1.648659,-0.4469391,0.1446832
7995,12:34:40.760000,-0.6511949,0.265745,-7.7185745,-1.8478009999999998,-0.3052185,0.1336876
7996,12:34:40.771000,-0.4093909,0.5219135,-6.782482099999999,-2.0066257,-0.0901942,0.1190268
7997,12:34:40.781000,-0.11252260000000001,3.0644464,-7.469587799999999,-2.2094327999999996,0.0649655,-0.23038779999999998
7998,12:34:40.793000,0.0,4.115455600000001,-7.1583557,-3.0634217,0.2665508,-0.0116982
7999,12:34:40.799000,-1.0581916999999998,4.3261366,-10.5938873,-3.0634217,0.2665508,-0.0116982
8000,12:34:40.812000,-1.2090199,4.115455600000001,-12.652811999999999,-5.2930779,0.7918945,0.1495701
8001,12:34:40.819000,4.0005388,0.7613234,-18.2933083,-5.2930779,0.7918945,0.1495701
8002,12:34:40.828000,0.7086533,-2.7603958,-14.4292326,-3.7194905,1.0411271999999998,-0.1399798
8003,12:34:40.838000,-0.9720040999999999,5.48488,-15.5736122,0.2413564,0.6611695,-0.183962
8004,12:34:40.847000,0.12928130000000002,3.272733,-14.2353106,0.2413564,0.6611695,-0.183962
8005,12:34:40.858000,-2.5185918999999997,-2.8848889,-12.092593199999998,-1.0597855,-0.6424159,0.1007009
8006,12:34:40.866000,-3.102752,1.8458501,-13.6008749,-1.0597855,-0.6424159,0.1007009
8007,12:34:40.876000,0.6128892,4.9031138,-8.4559574,-0.8349871999999999,-0.7633671,0.0799315
8008,12:34:40.887000,1.5537702,3.6653652,-5.7913251,1.0049373,-0.592325,-0.5150507000000001
8009,12:34:40.896000,0.31362690000000004,2.0924423,-6.239021299999999,1.1796446000000003,-0.2930012,-0.27681350000000005
8010,12:34:40.910000,0.038305599999999995,2.2217238,-6.7082644,0.8070172,-0.0535423,-0.11921040000000001
8011,12:34:40.916000,0.0861876,3.0692346,-7.002739,0.8070172,-0.0535423,-0.11921040000000001
8012,12:34:40.927000,0.0335174,3.8305580999999997,-8.1255713,0.1912655,0.126052,-0.1350929
8013,12:34:40.935000,0.31362690000000004,4.1106677000000005,-9.3154383,0.1912655,0.126052,-0.1350929
8014,12:34:40.944000,0.3806617,3.3445561,-9.6913118,-0.2253442,0.1492648,-0.23038779999999998
8015,12:34:40.958000,0.8092054,3.6749415,-9.9474802,-0.48923779999999994,0.0185398,-0.27681350000000005
8016,12:34:40.963000,0.5027608,4.065179799999999,-10.5292463,-0.48923779999999994,0.0185398,-0.27681350000000005
8017,12:34:40.977000,0.12449310000000001,3.5959363,-11.3097219,-0.15937079999999998,0.0478613,-0.0446849
8018,12:34:40.983000,0.1316754,2.8417952,-10.9290609,-0.15937079999999998,0.0478613,-0.0446849
8019,12:34:40.993000,0.28010959999999996,2.8202484,-9.997755999999999,0.039771100000000004,-0.0376598,-0.009254700000000001
8020,12:34:41.006000,0.0263351,2.6382967999999996,-9.1837626,0.2853387,-0.1292895,-0.0031460999999999998
8021,12:34:41.013000,-0.08379349999999999,2.6263263,-8.7983131,0.41972890000000007,-0.11951569999999999,0.0579404
8022,12:34:41.024000,-0.5003666,2.5281682,-8.520597500000001,0.3867422,-0.0914159,0.0897053
8023,12:34:41.031000,-0.059852499999999996,2.6813905,-8.451169,0.252352,-0.054764,0.0554969
8024,12:34:41.041000,-0.1915279,2.4395863999999996,-8.8868952,0.252352,-0.054764,0.0554969
8025,12:34:41.051000,-0.30883879999999997,2.3486105999999998,-9.478237199999999,0.0018975,-0.014446899999999999,0.056718700000000004
8026,12:34:41.060000,-0.15082820000000002,2.4994389999999997,-10.095913900000001,-0.2229007,0.028313599999999998,0.059162099999999995
8027,12:34:41.070000,-0.45727290000000004,2.5712618999999997,-10.5771284,-0.3291912,0.028313599999999998,0.040836199999999996
8028,12:34:41.080000,-0.4668492,2.8609481,-10.653739,-0.3939429,0.11261289999999999,0.0897053
8029,12:34:41.093000,-0.42136140000000005,2.9926236,-10.464606300000002,-0.2644396,0.1016174,0.0554969
8030,12:34:41.100000,-0.316021,3.0117762000000003,-10.0121212,-0.2644396,0.1016174,0.0554969
8031,12:34:41.109000,-0.169981,2.9375593999999996,-9.9498739,-0.1557056,0.052748199999999995,0.0090712
8032,12:34:41.119000,-0.1963161,2.837007,-9.861292800000001,-0.0921757,0.0319788,-0.0165851
8033,12:34:41.128000,-0.1532223,2.8729186,-9.6673708,-0.07140629999999999,0.0160963,-0.009254700000000001
8034,12:34:41.137000,-0.1197049,2.8178542,-9.6123056,-0.0579673,0.022205000000000003,-0.008033
8035,12:34:41.147000,-0.1723751,2.8920712,-9.715252900000001,-0.0469717,0.0124311,-0.008033
8036,12:34:41.157000,-0.18434560000000003,2.8322186,-9.7990456,-0.0494152,0.0112094,-0.0104765
8037,12:34:41.172000,-0.071823,2.9040418,-9.712859199999999,-0.059189,-0.009559999999999999,-0.0239155
8038,12:34:41.177000,-0.05745840000000001,2.8274305,-9.521330800000001,-0.0604107,-0.022999000000000002,-0.025137200000000002
8039,12:34:41.188000,-0.1005521,2.9064360000000002,-9.7032824,-0.0604107,-0.022999000000000002,-0.025137200000000002
8040,12:34:41.196000,-0.10773440000000001,2.863342,-9.641036,-0.0689628,-0.020555599999999997,-0.0239155
8041,12:34:41.206000,-0.0813994,2.8944654,-9.5787888,-0.06774110000000001,-0.041325,-0.017806799999999998
8042,12:34:41.215000,-0.1891338,2.9160123,-9.648218199999999,-0.06774110000000001,-0.041325,-0.017806799999999998
8043,12:34:41.225000,-0.0694289,2.9136182999999996,-9.633853,-0.07384980000000001,-0.0291077,-0.009254700000000001
8044,12:34:41.239000,-0.1149167,2.9638944,-9.562029800000001,-0.07873669999999999,-0.0046731,0.0005191
8045,12:34:41.247000,-0.047882,2.9040418,-9.4183836,-0.059189,-0.020555599999999997,0.0017408
8046,12:34:41.256000,-0.05745840000000001,2.9686825,-9.7559519,-0.07140629999999999,0.0185398,0.015179900000000001
8047,12:34:41.265000,-0.1556164,2.9375593999999996,-9.6003361,-0.07140629999999999,0.0185398,0.015179900000000001
8048,12:34:41.275000,-0.1747692,2.9734707,-9.6147013,-0.0689628,0.0197615,0.0090712
8049,12:34:41.294000,-0.1651928,2.9974117000000002,-9.624277099999999,-0.0579673,0.008765899999999998,0.0066277
8050,12:34:41.305000,-0.0622466,2.9782588,-9.6386423,-0.055523800000000005,0.0209832,0.005406
8051,12:34:41.313000,-0.12449310000000001,2.9806529999999998,-9.6003361,-0.055523800000000005,0.0209832,0.005406
8052,12:34:41.324000,-0.0885817,2.9495296000000004,-9.633853,-0.04575,0.0246484,0.005406
8053,12:34:41.333000,-0.1316754,2.9471354,-9.633853,-0.04575,0.0246484,0.005406
8054,12:34:41.343000,-0.05745840000000001,2.9543178,-9.631459199999998,-0.0433065,0.0246484,0.0041843
8055,12:34:41.353000,-0.10294629999999999,2.956712,-9.6218834,-0.0433065,0.0246484,0.0041843
8056,12:34:41.361000,-0.07661119999999999,2.9519238,-9.648218199999999,-0.0469717,0.0319788,0.0041843
8057,12:34:41.373000,-0.11731079999999999,2.9686825,-9.6721592,-0.0469717,0.0209832,0.0005191
8058,12:34:41.383000,-0.18195150000000002,2.9806529999999998,-9.6147013,-0.0469717,0.0209832,0.0005191
8059,12:34:41.394000,-0.1053403,2.9710765,-9.6769466,-0.039641300000000004,0.017318,-0.0007026
8060,12:34:41.404000,-0.169981,2.9591060000000002,-9.6769466,-0.032311,0.0124311,-0.0019244
8061,12:34:41.409000,-0.07661119999999999,3.0261407000000005,-9.6721592,-0.032311,0.0124311,-0.0019244
8062,12:34:41.418000,-0.1149167,3.0213525000000003,-9.7104654,-0.0213154,0.0063225,-0.0031460999999999998
8063,12:34:41.428000,-0.0790053,3.0093822,-9.686524400000001,-0.0213154,0.0063225,-0.0031460999999999998
8064,12:34:41.438000,-0.1149167,3.0093822,-9.6673708,-0.0176502,0.0063225,-0.0031460999999999998
8065,12:34:41.448000,-0.11731079999999999,2.9782588,-9.6386423,-0.011541599999999999,0.0026573,-0.0031460999999999998
8066,12:34:41.459000,-0.1197049,2.9519238,-9.6530056,-0.0078764,0.0002138,-0.0031460999999999998
8067,12:34:41.473000,-0.09097569999999999,2.9950175,-9.633853,-0.0017676999999999999,0.0002138,-0.0019244
8068,12:34:41.477000,-0.0813994,2.9998057,-9.5955477,-0.000546,-0.0022296,-0.0031460999999999998
8069,12:34:41.487000,-0.10773440000000001,2.983047,-9.6027298,-0.0017676999999999999,-0.0034514000000000003,-0.0019244
8070,12:34:41.496000,-0.10773440000000001,2.956712,-9.6075182,-0.0017676999999999999,-0.0034514000000000003,-0.0019244
8071,12:34:41.506000,-0.12449310000000001,2.9950175,-9.5859709,-0.0017676999999999999,-0.0034514000000000003,-0.0019244
8072,12:34:41.518000,-0.09815800000000001,3.0021996,-9.619488699999998,-0.018871900000000004,0.0051007,0.0005191
8073,12:34:41.525000,-0.09097569999999999,2.9974117000000002,-9.633853,-0.018871900000000004,0.0051007,0.0005191
8074,12:34:41.538000,-0.0694289,2.9902293999999996,-9.619488699999998,-0.0164285,-0.0010079000000000002,-0.0007026
8075,12:34:41.545000,-0.0311233,2.9974117000000002,-9.6458244,-0.0164285,-0.0010079000000000002,-0.0007026
8076,12:34:41.555000,-0.10773440000000001,2.9854412,-9.631459199999998,-0.0152067,0.0051007,0.0029625999999999997
8077,12:34:41.568000,-0.07661119999999999,3.0093822,-9.619488699999998,-0.0152067,0.0063225,0.0029625999999999997
8078,12:34:41.573000,-0.07661119999999999,3.0309291000000003,-9.617094999999999,-0.0152067,0.0063225,0.0029625999999999997
8079,12:34:41.585000,-0.05745840000000001,3.0093822,-9.619488699999998,-0.0127633,0.0026573,-0.0007026
8080,12:34:41.593000,-0.0646407,2.9974117000000002,-9.6386423,-0.0127633,0.0026573,-0.0007026
8081,12:34:41.603000,-0.0670348,3.0189586,-9.6601877,-0.010319799999999999,0.0026573,-0.0031460999999999998
8082,12:34:41.613000,-0.071823,3.0189586,-9.6147013,-0.0078764,0.0026573,-0.004367800000000001
8083,12:34:41.622000,-0.0670348,3.0141702,-9.626670800000001,-0.005432899999999999,0.0002138,-0.0055896
8084,12:34:41.635000,-0.1149167,3.0213525000000003,-9.641036,-0.004211199999999999,0.0002138,-0.0055896
8085,12:34:41.642000,-0.07661119999999999,3.0165646,-9.712859199999999,-0.004211199999999999,0.0002138,-0.0055896
8086,12:34:41.652000,-0.0933698,3.0093822,-9.593154,-0.004211199999999999,0.0063225,-0.0068113
8087,12:34:41.662000,-0.10773440000000001,3.0165646,-9.648218199999999,-0.004211199999999999,0.0063225,-0.0068113
8088,12:34:41.671000,-0.09097569999999999,2.9878352,-9.6099119,0.0006757000000000001,0.0209832,-0.0031460999999999998
8089,12:34:41.683000,0.0023940999999999997,2.9710765,-9.641036,-0.004211199999999999,0.0368657,0.0005191
8090,12:34:41.690000,-0.059852499999999996,2.9615002,-9.588364599999998,-0.004211199999999999,0.0368657,0.0005191
8091,12:34:41.702000,-0.0670348,2.9591060000000002,-9.593154,-0.0164285,0.0698524,0.0102929
8092,12:34:41.709000,-0.059852499999999996,2.9710765,-9.6386423,-0.0164285,0.0698524,0.0102929
8093,12:34:41.721000,0.059852499999999996,2.8968594,-9.617094999999999,-0.0310892,0.11016949999999999,0.0212885
8094,12:34:41.729000,0.045487900000000005,2.9447415,-9.650611900000001,-0.0310892,0.11016949999999999,0.0212885
8095,12:34:41.738000,0.0694289,2.9758646,-9.7296171,-0.026202299999999998,0.12727370000000002,0.028618900000000003
8096,12:34:41.752000,0.1580105,2.8801007000000003,-9.6769466,-0.0127633,0.1517083,0.0493883
8097,12:34:41.758000,0.1268872,3.0572641,-9.712859199999999,-0.0127633,0.1517083,0.0493883
8098,12:34:41.768000,0.14604,3.0309291000000003,-9.6218834,0.010449600000000002,0.17858629999999998,0.0848184
8099,12:34:41.787000,0.23462170000000002,2.9998057,-9.9211454,0.0361059,0.20912960000000003,0.1214703
8100,12:34:41.799000,0.44051409999999996,2.8537657000000003,-10.251530599999999,0.10574449999999999,0.3777282,0.18011329999999998
8101,12:34:41.806000,0.6511949,2.8537657000000003,-10.7351389,0.10574449999999999,0.3777282,0.18011329999999998
8102,12:34:41.816000,0.6176775,2.8872831000000003,-10.783021000000002,0.38307709999999995,0.5817571,0.2411998
8103,12:34:41.826000,0.4500906,2.8872831000000003,-10.9146957,0.6115404000000001,0.685604,0.2925124
8104,12:34:41.836000,0.5626131999999999,2.8250365,-10.663315800000001,0.6115404000000001,0.685604,0.2925124
8105,12:34:41.850000,0.725412,2.8729186,-10.5962811,0.8729906,0.7955597,0.3279426
8106,12:34:41.856000,0.9767923000000001,2.5568974,-10.3353243,1.3958906999999998,1.0447924000000002,0.393916
8107,12:34:41.868000,1.5824993,2.3414285,-10.0432444,1.5278375,1.1877348,0.39880290000000007
8108,12:34:41.874000,1.8793674999999999,2.2265117,-10.988912599999999,1.5278375,1.1877348,0.39880290000000007
8109,12:34:41.883000,1.8578206000000002,2.2169354,-11.2019882,1.5596025,1.3343425,0.4305679
8110,12:34:41.894000,1.7381157999999999,2.2480588,-11.5874376,1.6744450000000002,1.4858367000000001,0.46599799999999997
8111,12:34:41.903000,1.7069923999999999,2.5521092,-12.327214199999998,1.8699218,1.6581006,0.47332840000000004
8112,12:34:41.917000,1.8386679,2.1810241,-12.372701600000001,2.3659439,1.9781938000000001,0.36703790000000003
8113,12:34:41.923000,2.0948365,1.5848933,-13.5984812,2.3659439,1.9781938000000001,0.36703790000000003
8114,12:34:41.932000,2.5616858,0.8163876999999999,-16.2200184,2.6444981,2.0686016,0.1898872
8115,12:34:41.942000,6.3204203,-0.5243076,-15.279137599999999,2.6017377,2.0392802,0.0579404
8116,12:34:41.951000,6.7417822,2.0924423,-10.9194841,2.5601987999999998,1.8022647,-0.0055896
8117,12:34:41.965000,5.1137948,2.130748,-13.651150699999999,3.0684383,1.6800918999999999,0.583284
8118,12:34:41.972000,1.5561641000000002,3.7371883,-12.3320026,3.0684383,1.6800918999999999,0.583284
8119,12:34:41.985000,-1.1036795,2.9423472999999998,-15.248015400000002,3.4117443999999995,2.2653,0.6504791
8120,12:34:41.992000,0.1963161,0.5051548,-15.75317,3.4117443999999995,2.2653,0.6504791
8121,12:34:42.003000,5.350810500000001,-2.66942,-14.1395473,3.0403385,1.182848,0.27052129999999996
8122,12:34:42.012000,8.793524699999999,-4.0244799,-13.8019791,3.0220127,0.7723469000000001,0.46233279999999993
8123,12:34:42.019000,7.9867134,-2.7508194,-14.4651451,3.0220127,0.7723469000000001,0.46233279999999993
8124,12:34:42.031000,4.7331328,-1.1802906000000002,-14.8098946,3.9358663999999997,1.7301826,1.2210268999999998
8125,12:34:42.039000,3.3277972,-0.7158355,-13.991112699999999,3.9358663999999997,1.7301826,1.2210268999999998
8126,12:34:42.048000,3.9215337999999997,-0.9193339,-12.904192,4.0971345999999995,1.9733068999999999,1.4421598999999998
8127,12:34:42.058000,4.6780691,-1.2569019,-12.0279522,4.0763655,1.7863822,1.5472286
8128,12:34:42.068000,4.6613107000000005,-1.7189629000000002,-11.3623934,4.0812521,1.571358,1.6156454
8129,12:34:42.084000,4.3093777,-1.9847078000000002,-10.9194841,4.0702567,1.4601805,1.8147874
8130,12:34:42.088000,4.1753082,-2.4802864,-10.3856001,4.0702567,1.4601805,1.8147874
8131,12:34:42.102000,4.0029330000000005,-2.7603958,-9.631459199999998,4.016500499999999,1.4528501,1.9100822
8132,12:34:42.107000,3.9095633000000003,-2.9160123,-9.1526403,4.0531526,1.5163801000000001,1.974834
8133,12:34:42.116000,4.1106677000000005,-3.0524758999999997,-8.2835817,4.0433784,1.5139365,2.0017118000000003
8134,12:34:42.127000,4.295013,-3.5959363,-7.788003,3.9224272000000004,1.5371493999999999,1.9882729
8135,12:34:42.135000,4.2231898,-4.5727286,-7.4887409,3.9224272000000004,1.5371493999999999,1.9882729
8136,12:34:42.145000,4.2495255,-5.1616769,-7.634780900000001,3.6939637999999997,1.5469233999999998,1.9809424999999998
8137,12:34:42.155000,4.0986972,-5.1712537,-7.639568799999999,3.5070392999999997,1.5347061000000002,1.9198561
8138,12:34:42.165000,4.060391399999999,-4.2543135,-7.409735700000001,3.4398440999999997,1.476063,1.8819824
8139,12:34:42.177000,4.419506500000001,-3.610301,-7.0506210000000005,3.4483962,1.4064245000000002,1.8514392
8140,12:34:42.185000,4.9318433,-3.0907815,-5.6931671999999995,3.3518796,1.308686,1.7769138
8141,12:34:42.196000,3.8904104,-4.156155600000001,-4.464994,2.6090682000000003,1.0912182,1.5130202
8142,12:34:42.205000,2.7053316,-5.6069794,-3.4738371,2.6090682000000003,1.0912182,1.5130202
8143,12:34:42.214000,1.26169,-7.529440400000001,-4.426688700000001,2.0006468,1.0142493000000001,1.2589004
8144,12:34:42.224000,1.8147268,-8.8366184,-4.5392108,1.6817755,0.8383202,1.0243284
8145,12:34:42.234000,3.4044084999999997,-7.9962902,-4.4961176,1.841822,0.035644,0.8557296999999998
8146,12:34:42.248000,3.7970405,-6.5382833,-4.3213482,2.099607,-0.158611,0.9339204
8147,12:34:42.252000,3.4690489999999996,-5.8080834999999995,-4.1322145,2.099607,-0.158611,0.9339204
8148,12:34:42.261000,3.0548699,-5.5471268,-3.9454749,2.1826844,-0.13051120000000002,0.8593948
8149,12:34:42.271000,2.8537657000000003,-5.5662794,-3.6246655,2.1826844,-0.13051120000000002,0.8593948
8150,12:34:42.282000,2.619144,-5.8392072,-3.4283495000000004,1.8809173,-0.1561675,0.759213
8151,12:34:42.293000,2.4683158,-6.3587264999999995,-3.1697867000000004,1.8809173,-0.1561675,0.759213
8152,12:34:42.301000,2.5880208,-7.2684841,-2.693361,1.6988796000000002,-0.15738929999999998,0.7335567
8153,12:34:42.314000,2.6335083999999997,-8.240488099999999,-2.6287205,1.3238087,-0.1280678,0.6798006
8154,12:34:42.329000,2.8465835999999998,-9.3728971,-2.9208004,1.3238087,-0.1280678,0.6798006
8155,12:34:42.338000,3.0189586,-9.2627678,-3.1626046000000003,1.1234452,-0.0669813,0.5735102
8156,12:34:42.349000,2.8944654,-9.3154383,-3.0668404,1.1295538,-0.03277290000000001,0.5637363000000001
8157,12:34:42.361000,3.0405054,-9.219674099999999,-3.1793633,1.2053009,0.0576351,0.5368583
8158,12:34:42.369000,3.296674,-9.169398300000001,-3.102752,1.2053009,0.0576351,0.5368583
8159,12:34:42.380000,2.5999912999999997,-8.6977606,-3.1242987999999996,1.2126313,0.11872160000000001,0.5783971
8160,12:34:42.389000,2.8322186,-9.1550341,-3.0692346,1.2126313,0.11872160000000001,0.5783971
8161,12:34:42.398000,3.0716287999999996,-9.420779199999998,-3.2104863999999997,1.1393275,0.1419345,0.5050933
8162,12:34:42.411000,3.4522904999999997,-9.7008877,-3.3038561,1.0257068,0.0576351,0.5160889
8163,12:34:42.417000,3.2104863999999997,-9.5476656,-3.1195107,1.0257068,0.0576351,0.5160889
8164,12:34:42.430000,3.2799153,-9.5811834,-3.1673927,1.0929018,0.12727370000000002,0.5783971
8165,12:34:42.437000,3.4451079,-9.511754,-3.1721807,1.0929018,0.12727370000000002,0.5783971
8166,12:34:42.447000,3.3062503,-9.219674099999999,-3.0021996,1.1772011999999998,0.1468213,0.7323350000000001
8167,12:34:42.460000,3.1985159,-9.186157199999998,-2.8992536,1.21874,0.1822515,0.8166344
8168,12:34:42.466000,2.9375593999999996,-9.2914972,-2.5281682,1.2578353,0.21279479999999998,0.8984902
8169,12:34:42.477000,2.61675,-9.5045719,-2.279182,1.3152566,0.2555553,0.9791244
8170,12:34:42.486000,2.4324043,-9.741587599999999,-2.0756836,1.3152566,0.2555553,0.9791244
8171,12:34:42.495000,2.3126995999999997,-9.6793413,-1.7620566000000002,1.4960725000000001,0.26777259999999997,1.1648273
8172,12:34:42.506000,2.0254076000000003,-9.377684599999998,-1.6184107,1.4960725000000001,0.26777259999999997,1.1648273
8173,12:34:42.516000,1.7429038000000001,-8.8868952,-1.1707143,1.6084716000000001,0.2592205,1.243018
8174,12:34:42.527000,1.3502717,-8.4751101,-1.0557975,1.7746269000000001,0.2787682,1.3358694
8175,12:34:42.533000,1.1156501,-8.1638765,-0.6871063000000001,1.7746269000000001,0.2787682,1.3358694
8176,12:34:42.542000,0.7828703,-7.7329387999999994,-0.42854369999999997,1.8051701,0.2592205,1.3370911
8177,12:34:42.552000,0.5602191,-7.5533814,-0.1747692,1.8051701,0.2592205,1.3370911
8178,12:34:42.562000,0.4668492,-7.4312825,-0.0502761,1.7672964,0.2470032,1.2992176000000002
8179,12:34:42.578000,0.339962,-7.3810066999999995,0.1604046,1.5913674999999998,0.198134,1.2039226
8180,12:34:42.582000,0.48121379999999997,-7.4959229999999994,0.1963161,1.4899639,0.1736994,1.1611621
8181,12:34:42.593000,0.5075489000000001,-7.5557756,0.36390300000000003,1.3946691,0.1553735,1.1245101999999998
8182,12:34:42.601000,0.2753213,-7.594080900000001,0.3710853,1.3946691,0.1553735,1.1245101999999998
8183,12:34:42.611000,0.18434560000000003,-7.649145599999999,0.387844,1.2346225,0.14071270000000002,1.0402108
8184,12:34:42.620000,0.28968590000000005,-7.6754804000000005,0.35911479999999996,1.2346225,0.14071270000000002,1.0402108
8185,12:34:42.630000,0.4836079000000001,-7.8622203,0.3950263,1.1649839,0.08940010000000001,1.0169981
8186,12:34:42.645000,0.4740316,-8.1662712,0.435726,1.0367023000000002,0.028313599999999998,0.9498028000000001
8187,12:34:42.649000,0.4261496,-8.518202800000001,0.4189673,1.0367023000000002,0.028313599999999998,0.9498028000000001
8188,12:34:42.659000,0.3040505,-8.7695837,0.411785,0.9817245000000001,0.0380874,0.9253681999999999
8189,12:34:42.669000,0.2825037,-8.6714258,0.4620611,0.9572898999999999,0.0368657,0.9107075000000001
8190,12:34:42.678000,0.22743939999999999,-8.568478599999999,0.629648,0.9682854,0.028313599999999998,0.9143726999999999
8191,12:34:42.691000,-0.07421710000000001,-8.587632199999998,0.7924467,0.9633985999999999,0.027091900000000006,0.9058206
8192,12:34:42.698000,-0.265745,-8.961112,0.9360925999999999,0.9633985999999999,0.027091900000000006,0.9058206
8193,12:34:42.712000,-0.3758735,-9.301074,1.0773443999999999,0.920638,0.0295353,0.8826078000000002
8194,12:34:42.718000,-0.5075489000000001,-9.5189371,1.1826848,0.8790992,0.022205000000000003,0.8642818000000001
8195,12:34:42.728000,-0.5793719,-9.6362467,1.309572,0.8509995000000001,0.014874600000000002,0.8496210999999999
8196,12:34:42.736000,-0.6679536,-9.6961002,1.3478776000000001,0.8387822,0.008765899999999998,0.836182
8197,12:34:42.746000,-0.7421706,-9.870868699999999,1.4675825,0.8167911,-0.014446899999999999,0.777539
8198,12:34:42.755000,-0.8163876999999999,-9.9067812,1.6136225,0.8082389,-0.022999000000000002,0.7421088
8199,12:34:42.765000,-0.9504572,-10.0528212,1.7022042000000002,0.8082389,-0.022999000000000002,0.7421088
8200,12:34:42.774000,-1.041433,-10.1198549,1.7668449000000002,0.7935781,-0.0291077,0.7042353
8201,12:34:42.784000,-1.1850789,-10.2156191,1.9033084999999998,0.771587,-0.0449902,0.6700268
8202,12:34:42.794000,-1.2760546,-10.088731800000001,1.8530324,0.7532611,-0.07186820000000001,0.628488
8203,12:34:42.805000,-1.2952073999999998,-9.980998,1.8386679,0.7410438,-0.1024114,0.5906144
8204,12:34:42.815000,-1.2569019,-9.767923399999999,1.9009144,0.726383,-0.1476154,0.5637363000000001
8205,12:34:42.824000,-1.2736604999999999,-9.6745529,2.039772,0.7007267,-0.21236710000000003,0.5441887
8206,12:34:42.834000,-1.4244888,-9.753558199999999,2.1235654,0.6701834,-0.28078400000000003,0.5185323000000001
8207,12:34:42.844000,-1.4268829,-9.901991800000001,2.1379302000000004,0.5724451999999999,-0.4408305,0.4550025
8208,12:34:42.857000,-1.4077301000000002,-10.086338,2.0924423,0.5296845,-0.5532296,0.42934609999999995
8209,12:34:42.863000,-1.2928133999999998,-10.143796,2.0421662,0.5296845,-0.5532296,0.42934609999999995
8210,12:34:42.883000,-1.0270684,-9.846927599999999,1.9583727,0.5162456,-0.6668504,0.41468540000000004
8211,12:34:42.892000,-0.9336985000000001,-9.533301400000001,1.9607668999999999,0.5797755,-0.8501099,0.42812440000000007
8212,12:34:42.901000,-0.7804762,-9.214885699999998,1.9727374,0.6347533000000001,-0.9258571,0.4378982
8213,12:34:42.911000,-0.7110473,-9.0592699,2.1690536,0.6665183000000001,-0.9893870000000001,0.4488938
8214,12:34:42.923000,-0.6200716,-8.8701363,2.3486105999999998,0.654301,-1.0822383999999998,0.4782153
8215,12:34:42.930000,-0.6535890000000001,-8.781554199999999,2.4084632000000004,0.654301,-1.0822383999999998,0.4782153
8216,12:34:42.941000,-0.7134414000000001,-8.669032099999999,2.5616858,0.5993232,-1.0859036,0.5564060000000001
8217,12:34:42.949000,-0.8977870000000001,-8.491867999999998,2.6574495,0.5993232,-1.0859036,0.5564060000000001
8218,12:34:42.960000,-1.0845268,-8.1543007,2.8801007000000003,0.6078752,-1.0578039,0.5930579
8219,12:34:42.972000,-1.3574538999999999,-7.936437599999999,3.1171165000000003,0.6640748000000001,-0.9539568000000002,0.6529226
8220,12:34:42.979000,-1.7668449000000002,-8.0729008,3.272733,0.6640748000000001,-0.9539568000000002,0.6529226
8221,12:34:42.992000,-2.1235654,-8.573267900000001,3.3684969,0.6445272,-0.8940921000000001,0.6822441
8222,12:34:42.999000,-2.4802864,-8.7169142,3.7419762999999997,0.5809972,-0.8452228999999999,0.6541443
8223,12:34:43.011000,-2.475498,-8.688183800000001,4.139396700000001,0.6115404000000001,-0.8818749,0.6113838
8224,12:34:43.017000,-2.3940987999999996,-8.676214199999999,4.3979597,0.6115404000000001,-0.8818749,0.6113838
8225,12:34:43.026000,-2.3438227000000005,-8.5445375,4.7786212,0.6433054,-0.9148615,0.5356365
8226,12:34:43.036000,-2.2265117,-8.1447239,4.958178500000001,0.6836225,-0.9576220999999999,0.42445920000000004
8227,12:34:43.047000,-2.2648175,-7.816732400000001,5.1137948,0.6836225,-0.9576220999999999,0.42445920000000004
8228,12:34:43.057000,-2.2743938,-7.4360704,5.4178457,0.6066536,-0.9148615,0.3462685
8229,12:34:43.067000,-2.3390346,-7.273272,5.4944562999999995,0.6066536,-0.9148615,0.3462685
8230,12:34:43.076000,-2.4443748,-7.0410447,5.5686735999999994,0.5382366999999999,-0.8782097,0.3132818
8231,12:34:43.086000,-2.6622376,-6.7274175000000005,5.8104777,0.46493290000000004,-0.8122362,0.2790734
8232,12:34:43.096000,-2.66942,-7.1703253,5.8272367,0.3708597,-0.7450411,0.27174299999999996
8233,12:34:43.105000,-2.5066216,-7.0194974000000006,5.757807700000001,0.29511259999999995,-0.6619635,0.2179869
8234,12:34:43.115000,-2.0756836,-6.576589599999999,5.6428905,0.19248729999999997,-0.5947684,0.14346140000000002
8235,12:34:43.125000,-1.9392200000000002,-6.3898497,5.5255799,0.1130748,-0.5422340999999999,0.10192260000000002
8236,12:34:43.138000,-2.0900483,-6.583771700000001,5.5255799,0.039771100000000004,-0.3223227,0.0261754
8237,12:34:43.144000,-2.2432703999999997,-6.4257612,5.4346042,0.039771100000000004,-0.3223227,0.0261754
8238,12:34:43.155000,-2.3414285,-6.456884400000001,5.6835904,-0.0078764,-0.068203,-0.0007026
8239,12:34:43.164000,-2.5161977,-6.346756,5.5830383,-0.0078764,-0.068203,-0.0007026
8240,12:34:43.174000,-2.2935464,-6.5047665,5.5997968,0.039771100000000004,0.0368657,0.0029625999999999997
8241,12:34:43.186000,-2.0924423,-6.3012681,5.4322099999999995,0.0984141,0.11139120000000001,-0.0019244
8242,12:34:43.192000,-2.1738417,-6.3754849,5.678801999999999,0.1094097,0.18591670000000002,-0.009254700000000001
8243,12:34:43.204000,-2.5066216,-7.0937147,4.8408675,0.14972670000000002,0.3777282,-0.0055896
8244,12:34:43.212000,-2.0900483,-7.5031056,4.9318433,0.1436181,0.39849759999999995,-0.008033
8245,12:34:43.222000,-2.3103054,-6.8327579,5.7171078,0.24013470000000003,0.3936107,0.0273971
8246,12:34:43.231000,-2.6526616,-6.5598307,6.0570698,0.3366513,0.4681362,0.0445014
8247,12:34:43.240000,-2.6095676,-7.2828484,6.5071607,0.3366513,0.4681362,0.0445014
8248,12:34:43.251000,-2.3629756,-7.167931599999999,6.246203400000001,0.2340261,0.39849759999999995,0.015179900000000001
8249,12:34:43.259000,-1.8721851999999999,-6.698688499999999,5.875118700000001,0.2340261,0.39849759999999995,0.015179900000000001
8250,12:34:43.270000,-1.64714,-6.811211099999999,5.8631482,0.09963580000000001,0.3093114,0.0066277
8251,12:34:43.280000,-2.3079112,-6.9740095,5.834418299999999,-0.0335327,0.24455970000000002,-0.0019244
8252,12:34:43.289000,-2.813066,-6.835152099999999,5.7218962,-0.19602270000000002,0.270216,0.10803130000000001
8253,12:34:43.303000,-2.7196963,-6.253386,5.5686735999999994,-0.176475,0.2604422,0.1251355
8254,12:34:43.309000,-2.5521092,-5.8009014,5.6141615,-0.176475,0.2604422,0.1251355
8255,12:34:43.320000,-2.6766026000000003,-5.9038477,5.4633335999999995,-0.3010914,0.2384511,0.0102929
8256,12:34:43.328000,-2.8441892,-5.9756703,5.2741995,-0.3010914,0.2384511,0.0102929
8257,12:34:43.338000,-2.932771,-5.889483,5.1185832,-0.4147123,0.2616639,-0.043463199999999994
8258,12:34:43.348000,-2.8489776,-5.8870888,4.9605727,-0.48312910000000003,0.29709409999999997,-0.08744539999999999
8259,12:34:43.358000,-2.6095676,-5.8631482,4.792985400000001,-0.5271114,0.3313025,-0.157084
8260,12:34:43.372000,-2.3342462000000004,-6.3563317999999995,4.776227,-0.655393,0.4094932,-0.3305696
8261,12:34:43.387000,-2.0493486,-6.940492599999999,4.1681261,-0.8191046999999999,0.5084532,-0.3525607
8262,12:34:43.396000,-2.157083,-6.9428864,3.8760457,-0.8191046999999999,0.5084532,-0.3525607
8263,12:34:43.406000,-2.5856267999999996,-6.8183932,3.6438181000000003,-0.7641269,0.6807171,-0.3379
8264,12:34:43.418000,-3.1961217,-6.583771700000001,3.4738371,-0.7091491,0.7833424,-0.3464521
8265,12:34:43.425000,-3.8209815000000003,-6.2055039,3.5552367999999994,-0.7091491,0.7833424,-0.3464521
8266,12:34:43.435000,-4.0627856,-6.6771417,3.6318479,-0.6944883000000001,0.898185,-0.47106850000000006
8267,12:34:43.445000,-3.8544991000000004,-6.1648045,3.6414242,-0.6944883000000001,0.898185,-0.47106850000000006
8268,12:34:43.455000,-3.5121427000000005,-6.2150807,3.6917002,-0.8203264000000001,0.9140674000000001,-0.6860929
8269,12:34:43.468000,-2.8848889,-7.1368084000000005,3.5552367999999994,-0.8948519,0.9409453999999999,-0.7789443
8270,12:34:43.474000,-2.0014665000000003,-7.6515393,3.58636,-1.0573419,0.9287281999999999,-0.7728357
8271,12:34:43.485000,-1.2832369,-7.819126600000001,3.5552367999999994,-1.0573419,0.9287281999999999,-0.7728357
8272,12:34:43.493000,-0.8451169,-7.708998200000001,3.2535803,-1.1892886999999999,0.9030719000000001,-0.7044188
8273,12:34:43.503000,-0.9265162,-7.3331246,2.956712,-1.2076147,1.0032537000000001,-0.6323368
8274,12:34:43.513000,-1.5106763,-6.8902159,2.7819428,-1.2076147,1.0032537000000001,-0.6323368
8275,12:34:43.521000,-1.8697912,-6.4305490999999995,2.4683158,-1.1856235000000002,1.1229832,-0.6054586999999999
8276,12:34:43.536000,-2.0278015,-6.169592400000001,2.3198817000000003,-1.3395615,1.1779611,-0.6225629
8277,12:34:43.542000,-1.9535846999999997,-5.8966651,1.9966784,-1.3395615,1.1779611,-0.6225629
8278,12:34:43.552000,-1.4292768999999999,-5.8176599,2.0158311999999996,-1.6266678999999997,1.0215796999999998,-0.8241483000000001
8279,12:34:43.561000,-1.0103096999999999,-5.8032956,1.7740271,-1.6266678999999997,1.0215796999999998,-0.8241483000000001
8280,12:34:43.571000,-0.7732939,-5.8823004,1.4508239,-1.8893397,0.9397238000000001,-1.136911
8281,12:34:43.583000,-0.6009188,-5.8631482,1.0246743,-2.0041823,0.9629366,-1.2713013000000002
8282,12:34:43.590000,0.1149167,-5.834418299999999,1.3813950000000002,-2.0041823,0.9629366,-1.2713013000000002
8283,12:34:43.601000,-0.9887628,-6.7585410999999995,0.10294629999999999,-2.1678941000000003,1.1339788,-1.6304896999999998
8284,12:34:43.609000,-1.4340651000000002,-7.0913205,-0.22265120000000002,-2.1678941000000003,1.1339788,-1.6304896999999998
8285,12:34:43.620000,-1.1108619,-7.060196899999999,-0.122099,-2.258302,0.9800408000000002,-1.6818023000000002
8286,12:34:43.628000,-0.3758735,-7.088926299999999,-0.11252260000000001,-2.258302,0.9800408000000002,-1.6818023000000002
8287,12:34:43.638000,-0.071823,-7.543805099999999,-0.22025709999999998,-2.3022842,0.6770520000000001,-1.8051970000000002
8288,12:34:43.649000,-0.2130748,-8.0968418,-0.35672070000000006,-2.3474882000000004,0.6562825,-1.8491793
8289,12:34:43.657000,-0.4931844,-8.2428818,-0.44530240000000004,-2.3474882000000004,0.6562825,-1.8491793
8290,12:34:43.667000,-0.48600200000000005,-8.0729008,-0.4836079000000001,-2.3377144,0.613522,-1.8675051999999999
8291,12:34:43.676000,-0.33517379999999997,-7.8550382,-0.7469588,-2.3377144,0.613522,-1.8675051999999999
8292,12:34:43.686000,-0.18434560000000003,-7.5916872,-0.8762401,-2.3487101000000004,0.5622094,-1.8711703999999998
8293,12:34:43.698000,-0.17955739999999998,-7.2876363,-1.1180441,-2.4562223,0.46935790000000005,-1.92737
8294,12:34:43.705000,0.007182300000000001,-6.8973985,-1.211414,-2.4562223,0.46935790000000005,-1.92737
8295,12:34:43.717000,0.3208092,-6.9165516,-1.4292768999999999,-2.6688032,0.3300808,-2.1289554
8296,12:34:43.725000,0.7589293,-7.088926299999999,-1.5777111000000001,-2.6688032,0.3300808,-2.1289554
8297,12:34:43.735000,1.1491673999999998,-7.2349663,-1.8697912,-2.9681268,0.1749211,-2.3659708
8298,12:34:43.748000,1.3454834999999998,-7.3067894,-2.1283537999999997,-3.1012952,0.13338239999999998,-2.4576006
8299,12:34:43.754000,1.4867353,-7.1631436,-2.5090156,-3.1012952,0.13338239999999998,-2.4576006
8300,12:34:43.764000,1.5968639,-6.9021864,-2.8824949,-3.2185813999999997,0.08940010000000001,-2.5516737000000003
8301,12:34:43.774000,1.9631610000000002,-6.4353375,-3.1817572,-3.3199849,0.0319788,-2.6286426
8302,12:34:43.784000,2.0948365,-5.8320246,-3.5217192,-3.5008008000000004,-0.0877507,-2.758146
8303,12:34:43.798000,2.2145412,-5.1233716,-4.0029330000000005,-3.6241955999999997,-0.13906329999999997,-2.7605894
8304,12:34:43.803000,2.3246701,-4.0627856,-4.316559799999999,-3.7976811,-0.2380234,-2.708055
8305,12:34:43.813000,2.5305624,-2.6311145000000002,-5.1185832,-3.7976811,-0.2380234,-2.708055
8306,12:34:43.821000,3.5408720999999996,-1.0701622,-6.095375499999999,-3.9894927000000004,-0.379744,-2.6433033999999997
8307,12:34:43.832000,4.958178500000001,0.4740316,-6.966827400000001,-4.149539,-0.5752206999999999,-2.6494119
8308,12:34:43.841000,6.0905871,1.26169,-8.0250187,-4.2472773,-0.8061275999999999,-2.7838022999999996
8309,12:34:43.850000,6.629259599999999,1.0869209,-9.681735,-4.3841109000000005,-0.9820565999999998,-3.0696868999999998
8310,12:34:43.863000,7.517469900000001,0.1963161,-12.2266617,-4.8764682,-1.2838237,-3.9920926
8311,12:34:43.871000,9.4997845,-1.0845268,-14.3717747,-4.8764682,-1.2838237,-3.9920926
8312,12:34:43.880000,11.5850439,-2.0182252,-14.970298800000002,-5.6852527,-1.9484446,-4.7630038
8313,12:34:43.899000,13.308795000000002,2.0014665000000003,-15.4993954,-5.8550735000000005,-1.8372671999999999,-4.8082080000000005
8314,12:34:43.912000,11.4820976,3.4642611000000003,-14.8553829,-5.388372400000001,-1.4084401000000002,-4.473454
8315,12:34:43.919000,8.9659004,4.7283449,-16.1601677,-5.388372400000001,-1.4084401000000002,-4.473454
8316,12:34:43.930000,9.559636099999999,4.1537614000000005,-16.2056541,-4.9118981,-0.9221919,-3.4862967000000005
8317,12:34:43.938000,12.497195199999998,1.6255928999999998,-16.1458015,-4.9118981,-0.9221919,-3.4862967000000005
8318,12:34:43.949000,13.3423119,0.48121379999999997,-16.143407800000002,-4.9290023000000005,-0.9368526,-3.1429907999999998
8319,12:34:43.958000,12.9879856,1.5441937,-15.5233364,-4.9290023000000005,-0.9368526,-3.1429907999999998
8320,12:34:43.967000,14.8314419,4.970149,-17.067529699999998,-5.0890489,-0.8000189999999999,-2.9157491
8321,12:34:43.980000,7.7856088,8.8557711,-35.7893829,-6.928973700000001,-2.1561387,-3.2614985
8322,12:34:43.987000,19.325166699999997,-3.6510005,-52.5337067,-6.928973700000001,-2.1561387,-3.2614985
8323,12:34:43.997000,1.5824993,-4.235160400000001,-23.9170456,-3.3871801,-2.8781807,-0.25237889999999996
8324,12:34:44.007000,2.2432703999999997,-8.5134153,-22.8085785,-3.3871801,-2.8781807,-0.25237889999999996
8325,12:34:44.016000,6.370697,-9.3226213,-11.0128536,-0.41715569999999996,-1.1543205,-0.1314277
8326,12:34:44.030000,7.2684841,-2.0254076000000003,-3.1961217,4.4379973,-2.2037861,-0.0740064
8327,12:34:44.035000,4.910296400000001,2.7101197,-4.2998012999999995,4.6151481,-1.9582186000000001,1.405508
8328,12:34:44.048000,3.2368214,4.4482355,-5.2670169,3.9493053,-1.6796640999999999,1.8722086
8329,12:34:44.054000,3.0045941000000003,5.381934200000001,-7.471982000000001,3.9493053,-1.6796640999999999,1.8722086
8330,12:34:44.064000,2.7987015,6.9740095,-10.9601841,3.3372187999999996,-1.5623782,1.8563261000000002
8331,12:34:44.073000,2.7220902000000002,7.893343400000001,-12.619294199999999,2.9474871,-1.1885290000000002,1.8587697
8332,12:34:44.083000,2.7292726000000003,7.349883099999999,-12.901798199999998,2.7520103,-0.6411941,1.5631111
8333,12:34:44.099000,3.2272451,4.2591014000000005,-12.0064049,2.4514649,-0.0266642,1.0328805
8334,12:34:44.104000,4.6445513,1.0773443999999999,-11.1541061,1.9529994,0.44003640000000005,0.49898469999999995
8335,12:34:44.112000,5.633314599999999,-0.2537745,-10.208437,1.6170236999999998,1.1999521,-0.0642326
8336,12:34:44.122000,6.0163698,-0.4381201,-10.1485853,1.6170236999999998,1.1999521,-0.0642326
8337,12:34:44.131000,5.9996114,-0.6895005,-10.6824694,1.7391967000000002,1.7033048,-0.09233229999999999
8338,12:34:44.145000,5.5830383,-0.4237555,-12.102169,1.8357133999999997,2.7588789,-0.13753629999999997
8339,12:34:44.152000,5.8990593,-0.24419810000000003,-12.0662584,1.8357133999999997,2.7588789,-0.13753629999999997
8340,12:34:44.161000,7.0242853,-0.9576395000000001,-11.269022900000001,1.8247178,2.9690163,-0.0495718
8341,12:34:44.171000,7.9388312999999995,-2.0445604,-10.6585283,1.6927709999999998,3.0349896,-0.0740064
8342,12:34:44.181000,7.361853599999999,-2.4276164000000002,-11.0439777,1.0489196,2.9409165,0.7445523000000001
8343,12:34:44.194000,6.698688499999999,-3.6533947,-12.171598399999999,0.7972434,2.8199654,1.1245101999999998
8344,12:34:44.200000,6.6771417,-4.9031138,-12.7940636,0.7972434,2.8199654,1.1245101999999998
8345,12:34:44.212000,7.1439905,-4.5799112,-11.992040600000001,0.7605915,2.6269321,1.2136965
8346,12:34:44.220000,8.6355143,-4.1824902999999996,-12.516347900000001,0.9621768,2.256748,1.5997629
8347,12:34:44.229000,8.8270416,-4.0867267,-11.0296125,1.3775648,1.8560206999999997,2.0188162
8348,12:34:44.242000,8.664242699999999,-3.5719953,-11.659260699999999,1.9090171000000002,1.5114931999999999,2.1910800999999998
8349,12:34:44.249000,7.517469900000001,-3.9694157,-11.194806100000001,2.2804229,1.4931671999999998,2.3486831
8350,12:34:44.262000,6.416184400000001,-3.6797296999999998,-10.7662621,2.5675292,1.3416727,2.3584568999999997
8351,12:34:44.268000,6.4544902,-4.2327666,-10.3161716,2.8411967999999996,1.1449742,2.5771465
8352,12:34:44.278000,6.638835899999999,-4.7355275,-9.7798929,3.0281212,0.8505375,2.6309025000000004
8353,12:34:44.286000,7.088926299999999,-5.0707011,-9.648218199999999,3.1710637000000004,0.4974577,2.7518539
8354,12:34:44.298000,6.8255754,-5.1137948,-8.8509827,3.4655004000000003,0.24455970000000002,2.8202708
8355,12:34:44.311000,6.5670128,-5.1904058,-8.9946289,3.6047776,0.1993557,2.8947960999999998
8356,12:34:44.318000,6.466460700000001,-4.5463934,-8.3170986,3.6047776,0.1993557,2.8947960999999998
8357,12:34:44.328000,6.1815629,-3.4690489999999996,-7.491135099999999,3.7183983,0.1480431,2.9900911
8358,12:34:44.336000,5.4537568,-3.0237467000000002,-6.794452199999999,3.6047776,0.1956905,2.9338915
8359,12:34:44.345000,4.7139807000000005,-3.4498963,-6.217474500000001,3.3372187999999996,0.2494466,2.7921709999999997
8360,12:34:44.357000,4.2543135,-3.6964886,-5.6117672999999995,3.0122387,0.28609850000000003,2.5856986
8361,12:34:44.363000,3.5743894999999997,-3.8114052000000003,-5.0898538,2.6701546,0.3374112,2.3877785
8362,12:34:44.373000,3.0333229999999998,-3.8928044,-4.555970200000001,2.6701546,0.3374112,2.3877785
8363,12:34:44.383000,2.6119618,-3.6964886,-4.0627856,2.310966,0.3801717,2.1739757
8364,12:34:44.394000,2.9686825,-3.3756793,-3.5743894999999997,1.4068863,0.36184570000000005,1.7952397
8365,12:34:44.403000,2.1786296000000003,-5.0252137,-3.4068023999999997,1.4068863,0.36184570000000005,1.7952397
8366,12:34:44.413000,2.1020187999999997,-6.1241045,-3.9598392999999996,0.9365205,0.3532937,1.6058716999999998
8367,12:34:44.424000,2.6837847000000004,-7.278060000000001,-4.0627856,0.29266909999999996,0.35451540000000004,1.1746011
8368,12:34:44.433000,2.4060693,-8.3506165,-4.0627856,0.29266909999999996,0.35451540000000004,1.1746011
8369,12:34:44.443000,2.4587395,-8.9491405,-4.3931708,0.2718997,0.4302626,0.790978
8370,12:34:44.453000,2.6119618,-9.0305405,-4.5009055,0.2718997,0.4302626,0.790978
8371,12:34:44.472000,3.1602101,-8.496656399999999,-4.8097444000000005,0.3610859,0.4119366,0.6932397
8372,12:34:44.481000,3.4977782,-8.2979469,-4.900720099999999,0.6152055999999999,0.4265974,0.6113838
8373,12:34:44.491000,3.6150888999999995,-8.3841343,-4.800168,0.7947999,0.5304444,0.6822441
8374,12:34:44.500000,2.9854412,-8.5636911,-4.9246612,0.7947999,0.5304444,0.6822441
8375,12:34:44.511000,2.5975973999999997,-8.9323816,-4.685251200000001,0.8925382,0.7711251,0.8019736
8376,12:34:44.523000,2.5161977,-9.1191216,-4.6637044,0.9792811,0.776012,0.8801643
8377,12:34:44.530000,2.5473211,-8.6091785,-4.5392108,0.9792811,0.776012,0.8801643
8378,12:34:44.540000,2.3079112,-8.1399355,-3.7946465,1.2065226999999998,0.7369167,0.9693504999999999
8379,12:34:44.548000,1.6040461000000001,-8.0944481,-3.2009101,1.2065226999999998,0.7369167,0.9693504999999999
8380,12:34:44.558000,1.2185962,-7.957984,-3.1099343,1.2883786,0.7173689999999999,0.9107075000000001
8381,12:34:44.567000,1.2042316000000002,-7.8909497,-2.7580017999999997,1.2883786,0.7173689999999999,0.9107075000000001
8382,12:34:44.578000,1.5202527,-7.7856088,-2.6359026,1.277383,0.6025264,0.8789425
8383,12:34:44.590000,1.7596626,-7.9436197,-2.4802864,1.1759794,0.3435198,0.8031953000000001
8384,12:34:44.597000,1.8027563999999998,-8.0537481,-2.305517,1.1759794,0.3435198,0.8031953000000001
8385,12:34:44.608000,1.7333275000000001,-8.1662712,-2.2025707000000003,1.1100061,0.2738812,0.7579913
8386,12:34:44.616000,1.8578206000000002,-8.3338575,-2.2097533,1.0171546999999999,0.2421163,0.7017918000000001
8387,12:34:44.627000,2.0182252,-8.2500648,-2.3318522,0.8400038000000001,0.1517083,0.5405234999999999
8388,12:34:44.640000,2.1259596000000003,-8.391316400000001,-2.475498,0.7776957,0.12116500000000001,0.47332840000000004
8389,12:34:44.646000,2.0924423,-8.649879499999999,-2.5353506,0.7251613,0.1138347,0.42812440000000007
8390,12:34:44.656000,2.2121472,-9.0712404,-2.7436373,0.7251613,0.1138347,0.42812440000000007
8391,12:34:44.665000,2.4419807999999996,-9.485419300000002,-2.7795486,0.6885095,0.1040608,0.4085767
8392,12:34:44.675000,2.6239324,-9.423173,-2.6885729,0.6775138,0.0832914,0.4036898
8393,12:34:44.688000,2.4898627,-9.2316446,-2.6550555,0.7214961,0.0649655,0.4122419
8394,12:34:44.694000,2.1882062,-8.9204121,-2.5401387000000004,0.8974252,0.08695660000000001,0.44400690000000004
8395,12:34:44.723000,2.056531,-8.5253859,-2.2624232999999996,1.0110459,0.04541780000000001,0.3059515
8396,12:34:44.725000,1.7668449000000002,-8.348222699999999,-2.0469543999999997,1.0110459,0.04541780000000001,0.3059515
8397,12:34:44.725000,1.8099386999999998,-8.4368038,-1.9918901000000002,1.0110459,0.04541780000000001,0.3059515
8398,12:34:44.732000,1.9847078000000002,-8.4942617,-2.0110431,0.9792811,-0.0156687,0.2644127
8399,12:34:44.741000,2.0493486,-8.503838499999999,-1.9990726000000003,0.9536247,-0.0596509,0.22531729999999997
8400,12:34:44.752000,2.0661073,-8.403286900000001,-1.9535846999999997,0.9572898999999999,-0.0804203,0.21432179999999998
8401,12:34:44.761000,2.0685015,-8.187817599999999,-2.0852599,0.9572898999999999,-0.0804203,0.21432179999999998
8402,12:34:44.771000,2.1403244,-7.9795308,-2.0182252,0.9780593000000001,-0.1011897,0.23264770000000004
8403,12:34:44.781000,2.305517,-8.1734533,-1.9344318,1.0110459,-0.1378416,0.2411998
8404,12:34:44.791000,2.3198817000000003,-8.3697691,-1.9799197,1.0159329,-0.17205,0.2595257
8405,12:34:44.802000,2.4515569,-8.5445375,-2.0541368,1.0122677,-0.18915420000000002,0.27540820000000005
8406,12:34:44.810000,2.6095676,-8.429621699999998,-1.9200671999999999,1.0171546999999999,-0.19770629999999997,0.30106459999999996
8407,12:34:44.819000,2.5305624,-8.412862800000001,-1.8003622,1.0550282,-0.18548900000000001,0.3413816
8408,12:34:44.830000,2.3629756,-8.834223699999999,-1.7189629000000002,1.0977888,-0.1476154,0.3829204
8409,12:34:44.839000,2.4611335,-8.9826584,-1.575317,1.0990105,-0.0914159,0.4085767
8410,12:34:44.849000,2.2648175,-8.9228058,-1.5322232,1.1087843000000002,-0.0352163,0.4611111
8411,12:34:44.858000,2.1163833,-8.834223699999999,-1.3790008999999999,1.1258886000000001,0.0319788,0.5099802999999999
8412,12:34:44.874000,1.9799197,-8.810282699999998,-1.0725563,1.1271102,0.1700342,0.6443705
8413,12:34:44.878000,1.7620566000000002,-8.8509827,-0.9001811,1.096567,0.25433360000000005,0.6907962
8414,12:34:44.889000,1.4867353,-8.9491405,-0.7493529000000001,1.0440327,0.3361894,0.718896
8415,12:34:44.896000,1.1156501,-9.143062599999999,-0.533884,1.0440327,0.3361894,0.718896
8416,12:34:44.907000,0.9959450000000001,-9.2412214,-0.35672070000000006,0.997607,0.4265974,0.7250045999999999
8417,12:34:44.916000,0.9983392,-9.382473,-0.0406997,0.9695072,0.5072315,0.7274480999999999
8418,12:34:44.926000,0.7469588,-9.423173,-0.14125179999999998,0.9597334000000001,0.5878656999999999,0.6932397
8419,12:34:44.937000,0.5482486,-9.2172804,0.28968590000000005,0.8974252,0.7992249,0.6529226
8420,12:34:44.946000,0.32320340000000003,-9.1741858,0.45727290000000004,0.8974252,0.7992249,0.6529226
8421,12:34:44.956000,-0.265745,-9.0927868,1.0270684,0.8436690999999998,0.8590897,0.6309314
8422,12:34:44.969000,-0.775688,-9.128699300000001,0.5769778,0.739822,0.8554245,0.6578095
8423,12:34:44.986000,-0.3615089,-9.765528699999999,0.5961305,0.5296845,0.5951960999999999,0.40124640000000006
8424,12:34:44.993000,-0.5314899000000001,-9.851716,0.6200716,0.5296845,0.5951960999999999,0.40124640000000006
8425,12:34:45.003000,-0.5482486,-9.626670800000001,0.8451169,0.5223542,0.5072315,0.38780729999999997
8426,12:34:45.012000,-0.7493529000000001,-9.588364599999998,0.6895005,0.5333498000000001,0.4082715,0.4049115
8427,12:34:45.022000,-0.5937365,-9.6099119,0.8546931999999999,0.5309063,0.29342890000000005,0.39880290000000007
8428,12:34:45.032000,-0.5937365,-9.454296099999999,1.0797385,0.5296845,0.052748199999999995,0.36337270000000005
8429,12:34:45.042000,-0.6751359,-9.277133000000001,1.1276205,0.5296845,0.052748199999999995,0.36337270000000005
8430,12:34:45.053000,-0.7708998,-9.2699499,1.065374,0.5223542,-0.1109636,0.3731466
8431,12:34:45.063000,-0.725412,-9.193339300000002,1.1084677,0.5223542,-0.1109636,0.3731466
8432,12:34:45.071000,-0.7876585,-8.958718300000001,1.26169,0.4893675,-0.2135888,0.362151
8433,12:34:45.082000,-0.9887628,-8.872530000000001,1.2808429,0.43561140000000004,-0.3064403,0.362151
8434,12:34:45.091000,-0.9025753000000001,-8.9132299,1.3119662,0.3781901,-0.3589746,0.33893809999999996
8435,12:34:45.101000,-0.8929988000000001,-8.9874468,1.3502717,0.297556,-0.4787041,0.27785170000000003
8436,12:34:45.111000,-0.7780821,-8.9036531,1.431671,0.297556,-0.4787041,0.27785170000000003
8437,12:34:45.120000,-0.8283582,-8.707337400000002,1.5202527,0.2731214,-0.528795,0.2864038
8438,12:34:45.132000,-1.0246743,-8.623543699999999,1.5346173,0.27067800000000003,-0.5495644000000001,0.2790734
8439,12:34:45.140000,-1.0941031,-8.623543699999999,1.5681346999999999,0.2560172,-0.5458993000000001,0.290069
8440,12:34:45.150000,-1.1539556,-8.499051099999999,1.6758691000000003,0.1912655,-0.5434558,0.3206122
8441,12:34:45.159000,-1.1587437,-8.424833300000001,1.8626089,0.1912655,-0.5434558,0.3206122
8442,12:34:45.169000,-1.2999957,-8.582843800000001,1.8817616999999998,0.08497510000000001,-0.5495644000000001,0.33893809999999996
8443,12:34:45.179000,-1.3837892,-8.7576132,2.0732894,0.08497510000000001,-0.5495644000000001,0.33893809999999996
8444,12:34:45.188000,-1.4747648000000002,-8.884499499999999,2.1762357000000003,-0.0237588,-0.5275733,0.3548206
8445,12:34:45.200000,-1.673475,-8.839013099999999,2.2360882999999996,-0.07140629999999999,-0.5006952,0.3768118
8446,12:34:45.207000,-1.6806574,-8.865347900000002,2.3605812000000004,-0.1153885,-0.49703,0.3926943
8447,12:34:45.218000,-1.8147268,-8.8892889,2.3581872,-0.16181429999999997,-0.49336490000000005,0.3951377
8448,12:34:45.226000,-2.0445604,-8.9347773,2.3318522,-0.16181429999999997,-0.49336490000000005,0.3951377
8449,12:34:45.236000,-2.1163833,-8.9204121,2.4300102999999997,-0.1996879,-0.4823693,0.380477
8450,12:34:45.250000,-2.1642652,-8.946746800000001,2.4826806,-0.23633979999999996,-0.4945866,0.3206122
8451,12:34:45.256000,-2.2145412,-9.076027900000001,2.5425327,-0.23633979999999996,-0.4945866,0.3206122
8452,12:34:45.271000,-2.2025707000000003,-9.1981268,2.4467689999999997,-0.24122670000000002,-0.5006952,0.23020429999999997
8453,12:34:45.276000,-2.2313001,-9.370502499999999,2.4300102999999997,-0.24122670000000002,-0.5006952,0.23020429999999997
8454,12:34:45.286000,-2.1666594,-9.420779199999998,2.4563452999999997,-0.23389629999999997,-0.5006952,0.19721760000000002
8455,12:34:45.294000,-2.2073591,-9.4040203,2.3869164,-0.2229007,-0.49947349999999996,0.1715612
8456,12:34:45.304000,-2.106807,-9.3633204,2.4539514,-0.21312689999999998,-0.49214309999999994,0.1569005
8457,12:34:45.316000,-1.9847078000000002,-9.2627678,2.5521092,-0.176475,-0.4750389,0.127579
8458,12:34:45.323000,-1.9847078000000002,-9.2651625,2.5329566000000003,-0.176475,-0.4750389,0.127579
8459,12:34:45.333000,-2.1499007000000003,-8.980263699999998,2.3126995999999997,-0.1105016,-0.40784380000000003,0.13490929999999998
8460,12:34:45.343000,-2.1666594,-8.649879499999999,2.0732894,-0.1105016,-0.40784380000000003,0.13490929999999998
8461,12:34:45.353000,-1.9655551,-8.5780563,2.0756836,-0.04575,-0.3699702,0.1459049
8462,12:34:45.366000,-1.8219091,-8.7288837,2.1020187999999997,0.0678709,-0.3125489,0.095814
8463,12:34:45.371000,-1.8578206000000002,-8.76719,2.1810241,0.0947489,-0.2636797,0.09947919999999999
8464,12:34:45.381000,-1.8482443,-8.640301699999998,2.2432703999999997,0.1118531,-0.2025933,0.12391379999999999
8465,12:34:45.392000,-1.8602147,-8.4942617,2.2719998,0.1118531,-0.2025933,0.12391379999999999
8466,12:34:45.400000,-1.9368258999999999,-8.326675400000001,2.1020187999999997,0.0984141,-0.1488372,0.1569005
8467,12:34:45.415000,-1.9392200000000002,-8.2093649,1.8745793999999998,0.0251103,-0.058429199999999994,0.1654526
8468,12:34:45.421000,-1.9296436000000001,-8.3027344,1.7883917,0.0251103,-0.058429199999999994,0.1654526
8469,12:34:45.435000,-1.8937321,-8.3386459,1.8985202,-0.0213154,-0.036438099999999994,0.1324659
8470,12:34:45.440000,-1.8793674999999999,-8.556509,2.0349839,-0.1483752,-0.0401032,0.0469448
8471,12:34:45.458000,-1.8721851999999999,-8.9922352,2.0924423,-0.1483752,-0.0401032,0.0469448
8472,12:34:45.468000,-2.0254076000000003,-9.171792,2.0541368,-0.2497788,-0.0559857,-0.0459066
8473,12:34:45.477000,-1.9464022,-9.351349800000001,2.0206193999999997,-0.2900959,-0.05109880000000001,-0.125319
8474,12:34:45.488000,-1.8027563999999998,-9.3609257,2.082866,-0.3023131,-0.0596509,-0.1485319
8475,12:34:45.499000,-1.7836037,-9.253191900000001,2.1139894,-0.3023131,-0.0596509,-0.1485319
8476,12:34:45.508000,-1.8003622,-9.0616636,2.0661073,-0.3157522,-0.0559857,-0.157084
8477,12:34:45.517000,-1.8937321,-8.865347900000002,2.0445604,-0.3291912,-0.0376598,-0.15952750000000002
8478,12:34:45.529000,-1.8721851999999999,-8.6546669,1.9511904999999998,-0.35729099999999997,-0.020555599999999997,-0.1644144
8479,12:34:45.537000,-1.8673970000000002,-8.499051099999999,1.8793674999999999,-0.3866125,-0.014446899999999999,-0.17418820000000002
8480,12:34:45.549000,-1.8195150000000002,-8.405680699999998,1.8721851999999999,-0.40860359999999996,0.030757099999999996,-0.215727
8481,12:34:45.556000,-1.6303812,-8.477503800000001,1.8865498,-0.40860359999999996,0.030757099999999996,-0.215727
8482,12:34:45.565000,-1.4556118999999998,-8.640301699999998,1.8985202,-0.4452555,0.0429744,-0.2181705
8483,12:34:45.575000,-1.26169,-8.7312784,1.8434560000000002,-0.4990116,0.0722959,-0.2169487
8484,12:34:45.585000,-1.0845268,-8.7312784,1.7357216,-0.6211846,0.16636900000000002,-0.15952750000000002
8485,12:34:45.597000,-1.1802906000000002,-8.702549000000001,1.4005477,-0.6627233,0.21523820000000002,-0.0886672
8486,12:34:45.604000,-1.0342506999999999,-8.4583511,1.2545078,-0.6627233,0.21523820000000002,-0.0886672
8487,12:34:45.613000,-0.9911568999999999,-7.981925,1.1252263999999998,-0.650506,0.24822489999999997,-0.0544587
8488,12:34:45.623000,-1.1778966,-7.5533814,0.9839745999999999,-0.6370670999999999,0.256777,-0.0813368
8489,12:34:45.634000,-1.5705287,-7.1463852,0.7828703,-0.6676103,0.25433360000000005,-0.1338711
8490,12:34:45.645000,-1.601652,-7.088926299999999,0.7302001,-0.7494662,0.14071270000000002,-0.3904343
8491,12:34:45.653000,-1.6375635,-7.0458326,0.5386721999999999,-0.7494662,0.14071270000000002,-0.3904343
8492,12:34:45.663000,-1.6399577,-7.13202,0.6511949,-0.727475,0.0478613,-0.5944632
8493,12:34:45.672000,-1.4412475,-7.479164599999999,0.7038651,-0.7531313000000001,-0.0474336,-0.7215229999999999
8494,12:34:45.682000,-1.2449313,-7.874190799999999,0.6535890000000001,-0.8630870999999999,-0.2856709,-0.9780861999999999
8495,12:34:45.695000,-0.7685057,-8.1351471,0.7421706,-0.9034040999999999,-0.39807,-1.0611638
8496,12:34:45.701000,-0.6488007,-8.1590881,0.49557840000000003,-0.9681556999999998,-0.4848128,-1.0550551000000001
8497,12:34:45.712000,-0.3830558,-8.178241700000001,0.4931844,-1.0365726,-0.5617816999999999,-1.0196249
8498,12:34:45.720000,-0.28489770000000003,-8.156694400000001,0.2729273,-1.0365726,-0.5617816999999999,-1.0196249
8499,12:34:45.731000,-0.23222759999999998,-8.0154428,-0.0933698,-1.1709628,-0.6460811,-1.0245119
8500,12:34:45.740000,-0.23222759999999998,-7.7951856,-0.3303856,-1.1709628,-0.6460811,-1.0245119
8501,12:34:45.749000,-0.217863,-7.646751400000001,-0.3734794,-1.2198319,-0.6961719,-1.0220684000000002
8502,12:34:45.761000,-0.35672070000000006,-7.5414109,-0.6631654,-1.3065748,-0.7865799,-1.0465030999999998
8503,12:34:45.769000,-0.07421710000000001,-7.357065700000001,-0.5003666,-1.3065748,-0.7865799,-1.0465030999999998
8504,12:34:45.779000,-0.009576399999999999,-7.1942663,-0.7038651,-1.3701047,-0.8244535,-1.195554
8505,12:34:45.789000,0.13406949999999998,-6.849516400000001,-1.0127038000000002,-1.3701047,-0.8244535,-1.195554
8506,12:34:45.798000,0.4069968,-6.4784312,-1.1132559,-1.5643597,-0.8049059000000001,-1.2835186
8507,12:34:45.811000,0.5841601,-6.1576219000000005,-1.5106763,-1.6755371,-0.7816930000000001,-1.353157
8508,12:34:45.818000,0.9241222,-5.757807700000001,-1.9296436000000001,-1.6755371,-0.7816930000000001,-1.353157
8509,12:34:45.829000,1.1348027,-5.3603868,-2.3246701,-1.7928231,-0.7462628000000001,-1.448452
8510,12:34:45.837000,1.4795530000000001,-4.869597,-2.6263263,-1.9174395,-0.7022805999999999,-1.520534
8511,12:34:45.847000,1.8937321,-4.4937234,-2.8274305,-2.1984372000000003,-0.5862163,-1.6842457999999998
8512,12:34:45.856000,2.2121472,-4.2854371,-3.2320333,-2.1984372000000003,-0.5862163,-1.6842457999999998
8513,12:34:45.865000,2.4012811000000003,-4.172914,-3.8066169999999997,-2.3670359,-0.49947349999999996,-1.7880927
8514,12:34:45.877000,2.6359026,-4.2686782,-4.1034851,-2.7140071,-0.27834050000000005,-1.9444741
8515,12:34:45.886000,2.8346131000000003,-4.2160082,-4.3141661,-2.7140071,-0.27834050000000005,-1.9444741
8516,12:34:45.896000,2.9136182999999996,-4.1896729,-4.316559799999999,-2.8276279,-0.18548900000000001,-2.0287735000000002
8517,12:34:45.905000,3.0189586,-4.1992487999999994,-4.2112193,-2.9229228,-0.1048549,-2.1142945
8518,12:34:45.914000,3.0644464,-4.2279787,-4.1800966,-3.0365436000000003,-0.03277290000000001,-2.2034807
8519,12:34:45.928000,3.1362693,-4.4506296999999995,-4.4602059999999994,-3.2246900000000003,0.10650430000000001,-2.3684142
8520,12:34:45.934000,3.1434517000000004,-4.917479,-4.6373695999999995,-3.2246900000000003,0.10650430000000001,-2.3684142
8521,12:34:45.944000,3.2631563999999997,-5.7554135,-5.0994306,-3.410393,0.1993557,-2.4050662999999997
8522,12:34:45.954000,3.8449225,-6.6627769,-4.984513300000001,-3.410393,0.1993557,-2.4050662999999997
8523,12:34:45.963000,4.6182165,-6.9237337,-4.630187,-3.5386746,0.1346041,-2.3427578999999996
8524,12:34:45.976000,4.917479,-6.385061299999999,-5.2598348,-3.9406235,-0.1634979,-2.0849731
8525,12:34:45.983000,5.1042185,-4.9533906,-7.3810066999999995,-3.9406235,-0.1634979,-2.0849731
8526,12:34:45.995000,5.6452851,-3.2679447999999995,-12.0423174,-4.5514879,-0.7743626,-2.35131
8527,12:34:46.002000,5.7530193,-2.2480588,-15.6789532,-4.5514879,-0.7743626,-2.35131
8528,12:34:46.012000,6.246203400000001,-2.0206193999999997,-17.1034412,-5.377377,-1.8274933999999998,-3.6243522000000006
8529,12:34:46.025000,7.656328200000001,-2.133142,-15.104369199999999,-5.377377,-1.8274933999999998,-3.6243522000000006
8530,12:34:46.031000,9.6123056,-1.8099386999999998,-9.9043875,-5.9332638,-2.3784935000000003,-4.240103700000001
8531,12:34:46.042000,11.6712313,-1.1587437,-4.4841470999999995,-6.9448562,-2.953928,-4.4087024
8532,12:34:46.051000,9.5787888,0.42136140000000005,-5.944547200000001,-6.9448562,-2.953928,-4.4087024
8533,12:34:46.061000,8.2955523,-0.4189673,-13.076566699999999,-7.2637272,-1.7774023999999997,-4.0580659
8534,12:34:46.070000,12.762940400000002,0.9456690000000001,-16.5767403,-7.2637272,-1.7774023999999997,-4.0580659
8535,12:34:46.079000,18.9133797,16.4115467,-25.0087566,-7.4701996,-2.0755044999999996,-3.674443
8536,12:34:46.092000,16.9262772,30.4840603,-42.3300591,-7.6314678,-5.0785151,-3.7905073
8537,12:34:46.099000,2.8010955,17.8599758,-46.5005798,-7.6314678,-5.0785151,-3.7905073
8538,12:34:46.112000,-5.4872746,-5.8966651,-32.234146100000004,-6.8654437,-5.0736284000000005,-2.1191814
8539,12:34:46.118000,-10.3688421,-5.422633599999999,-17.8049126,-4.792168599999999,-4.6118144999999995,1.6229758
8540,12:34:46.128000,-0.5290958,0.1747692,-12.7868814,-1.363996,-3.206826,2.5404947
8541,12:34:46.140000,5.33884,3.7371883,-8.252458599999999,1.9639950000000002,-2.8708503,-0.5969066
8542,12:34:46.147000,6.1288929,3.7395822999999995,-4.1106677000000005,3.3042321000000006,-3.9142075,-1.5168688
8543,12:34:46.160000,4.781014900000001,3.1697867000000004,-1.6638986,2.2914182999999997,-4.862269400000001,-0.04101969999999999
8544,12:34:46.167000,2.5856267999999996,0.5674013000000001,-3.416379,0.8326734,-4.5800495,0.39635940000000003
8545,12:34:46.177000,1.7955738999999997,-1.7859976000000002,-4.5799112,-0.6712755,-4.104796899999999,0.49409780000000003
8546,12:34:46.186000,1.5250409,-2.2863643,-11.6089849,-0.6712755,-4.104796899999999,0.49409780000000003
8547,12:34:46.196000,-1.3550598999999999,-0.3303856,-15.9830027,-1.720741,-3.5867839,0.2949559
8548,12:34:46.208000,-0.36390300000000003,0.5410663,-14.2520704,-2.1617854,-1.2532806,0.6345966
8549,12:34:46.215000,-0.2513804,3.0524758999999997,-13.0262909,-2.1617854,-1.2532806,0.6345966
8550,12:34:46.226000,-1.7836037,6.143257599999999,-10.9817314,0.4233941,0.6123003,0.7738738000000001
8551,12:34:46.234000,-1.8673970000000002,6.289297599999999,-7.8646145,0.4233941,0.6123003,0.7738738000000001
8552,12:34:46.244000,-0.23462170000000002,4.7091918,-3.6055129,1.7514140999999999,1.119318,0.45133720000000005
8553,12:34:46.257000,2.7053316,2.8058836,-0.6966828,2.2535448,1.3343425,0.059162099999999995
8554,12:34:46.263000,3.0117762000000003,1.1707143,-3.4498963,1.7990613999999998,1.4149766000000001,-0.0104765
8555,12:34:46.273000,0.411785,0.0885817,-8.9419594,0.7178309,1.5176017,0.2436433
8556,12:34:46.283000,-1.6686869,-0.2920801,-13.1771202,-0.5527678,1.4479632,0.6003881999999999
8557,12:34:46.293000,-3.2823095,-1.3478776000000001,-16.0524311,-1.3578874,0.9983668,0.8044170999999999
8558,12:34:46.306000,-3.8760457,-1.9080968,-16.715597199999998,-1.1672976000000002,0.1040608,0.6773571999999999
8559,12:34:46.312000,-1.8051505,-1.3718187,-15.903998399999999,-1.1672976000000002,0.1040608,0.6773571999999999
8560,12:34:46.331000,-0.8499051,0.9289103000000001,-11.4557629,-0.3939429,-0.12195910000000001,0.38780729999999997
8561,12:34:46.340000,-0.2465922,1.0462211,-9.957057,0.6909529000000001,-0.41395240000000005,-0.027580700000000003
8562,12:34:46.354000,0.1316754,0.9241222,-8.8126774,0.7630349000000001,-0.5568948,-0.157084
8563,12:34:46.360000,0.33517379999999997,0.49557840000000003,-8.4368038,0.7557045,-0.600877,-0.20961839999999998
8564,12:34:46.372000,0.5721896,0.6535890000000001,-8.1231766,0.3891857,-0.4335001,-0.1399798
8565,12:34:46.380000,0.49797250000000004,1.0246743,-8.2716112,0.3891857,-0.4335001,-0.1399798
8566,12:34:46.392000,-0.071823,1.0270684,-9.2053099,-0.0078764,0.007544199999999999,0.011514700000000001
8567,12:34:46.399000,-0.28489770000000003,0.8522992,-9.741587599999999,-0.0078764,0.007544199999999999,0.011514700000000001
8568,12:34:46.408000,-0.1532223,0.8499051,-9.5907602,-0.1776968,0.27143779999999995,0.0579404
8569,12:34:46.417000,-0.0359115,0.8068113,-9.5811834,-0.1776968,0.27143779999999995,0.0579404
8570,12:34:46.427000,-0.0622466,0.7373824000000001,-9.715252900000001,-0.1740316,0.34718499999999997,0.0481665
8571,12:34:46.438000,0.0335174,0.7014709,-9.868475,-0.3194174,0.3679544,0.013958100000000001
8572,12:34:46.447000,-0.22743939999999999,0.8307523000000001,-10.306594800000001,-0.3194174,0.3679544,0.013958100000000001
8573,12:34:46.458000,-0.4500906,0.8331464,-10.641769400000001,-0.5283331,0.27143779999999995,0.0005191
8574,12:34:46.467000,-0.3950263,1.0270684,-10.742321,-0.5283331,0.27143779999999995,0.0005191
8575,12:34:46.476000,-0.14125179999999998,1.0390389000000002,-10.6896505,-0.40616009999999997,0.29709409999999997,-0.0691195
8576,12:34:46.488000,0.18195150000000002,1.0486152,-10.754291499999999,-0.40616009999999997,0.29709409999999997,-0.0691195
8577,12:34:46.495000,0.07421710000000001,1.3406953000000001,-10.9386368,-0.25955259999999997,0.3667327,-0.11676689999999999
8578,12:34:46.506000,0.28489770000000003,1.2808429,-11.1995935,0.13506600000000002,0.5780919,-0.15952750000000002
8579,12:34:46.516000,0.49797250000000004,1.26169,-11.410275500000001,0.13506600000000002,0.5780919,-0.15952750000000002
8580,12:34:46.526000,0.6727418000000001,1.6950218999999997,-11.223534599999999,0.3708597,0.6623912,-0.1644144
8581,12:34:46.540000,0.799629,2.1762357000000003,-10.866813699999998,0.9902766,0.8065553000000001,0.024953700000000002
8582,12:34:46.545000,0.8522992,1.9487964,-11.0655241,1.2712743,0.8871894,0.16300910000000002
8583,12:34:46.552000,1.1204382,1.4651883999999997,-11.1660767,1.2712743,0.8871894,0.16300910000000002
8584,12:34:46.563000,1.1802906000000002,0.6583770999999999,-11.3599987,1.4936291000000002,0.9678235999999999,0.2570823
8585,12:34:46.573000,1.3981537,-0.2561686,-11.6903839,1.6170236999999998,1.0655620000000001,0.2986211
8586,12:34:46.585000,1.6088343999999999,-0.581766,-12.250602699999998,1.6304628,1.2072825,0.2839603
8587,12:34:46.593000,2.0158311999999996,-0.9193339,-12.837157199999998,1.6585625,1.3661072,0.2350911
8588,12:34:46.604000,2.7915192,-1.139591,-13.2896423,1.9420038,1.792491,0.0835967
8589,12:34:46.612000,3.1242987999999996,-1.4747648000000002,-14.038994800000001,1.9420038,1.792491,0.0835967
8590,12:34:46.622000,3.5408720999999996,-1.3766067,-14.714131400000001,2.2022321,2.0624931,0.1031444
8591,12:34:46.634000,3.3421616999999997,-1.1826848,-15.410814300000002,2.5479814999999997,2.2970650000000004,0.1703395
8592,12:34:46.641000,3.3158267,-1.0055215,-15.702894199999998,2.8314228,2.4424509999999997,0.2350911
8593,12:34:46.652000,3.1626046000000003,-0.8092054,-16.0548267,3.0501125,2.4900985,0.303508
8594,12:34:46.661000,3.5791779000000004,-1.1036795,-16.255929899999998,3.1747289,2.4216816000000003,0.3511555
8595,12:34:46.672000,4.3716245,-1.8793674999999999,-16.3923931,3.2394805,1.981859,0.4598894
8596,12:34:46.680000,5.4106631,-2.3486105999999998,-15.9973679,3.2394805,1.981859,0.4598894
8597,12:34:46.690000,6.2198687,-2.6263263,-15.8154163,3.3628752,1.7558391,0.5722885
8598,12:34:46.703000,6.930915799999999,-2.2743938,-16.004550899999998,3.5559084000000003,1.5640275,0.9766809000000001
8599,12:34:46.709000,7.560564,-2.6646321,-15.8273869,3.5559084000000003,1.5640275,0.9766809000000001
8600,12:34:46.720000,7.230177900000001,-2.7843367999999997,-15.786686900000001,3.9199839,1.9610896,1.1941488
8601,12:34:46.729000,6.7776933,-2.9471354,-14.864958800000002,3.9199839,1.9610896,1.1941488
8602,12:34:46.738000,6.3539381,-3.0500817000000002,-13.7038212,4.2755075,2.3764775,1.2857785
8603,12:34:46.748000,6.370697,-3.4091966,-12.523531,4.590713500000001,2.7735395,1.4226121999999999
8604,12:34:46.758000,6.121710299999999,-2.3390346,-11.776572199999999,4.7336559000000005,3.0875242000000003,1.5997629
8605,12:34:46.769000,5.4657273,-1.1515615,-9.7080698,4.7593122,3.4919163999999996,1.9613948
8606,12:34:46.777000,3.9095633000000003,-0.44051409999999996,-9.143062599999999,4.7593122,3.4919163999999996,1.9613948
8607,12:34:46.787000,2.9902293999999996,0.2992623,-8.3554049,4.3353720000000004,3.5811028,2.249723
8608,12:34:46.805000,3.0309291000000003,-2.5688679,-5.8152661,4.3353720000000004,3.5811028,2.249723
8609,12:34:46.818000,3.1410575,-4.632581200000001,-5.116189,2.7911057,2.8834953,2.3682307999999996
8610,12:34:46.825000,2.183418,-4.1609435,-5.1760416,2.7911057,2.8834953,2.3682307999999996
8611,12:34:46.835000,1.6064403,-5.2550468,-4.3620481,2.5039992,2.8114133,2.5404947
8612,12:34:46.851000,2.5305624,-5.413057299999999,-2.4084632000000004,2.0739505,2.3483777000000003,2.2704926
8613,12:34:46.855000,1.1731083,-5.9325767,-3.0357172,2.0739505,2.3483777000000003,2.2704926
8614,12:34:46.868000,0.8738461,-6.282115,-2.5880208,1.9114605,2.0942581000000002,2.1226632999999997
8615,12:34:46.873000,0.8139936,-6.643623799999999,-2.4324043,1.7501923,1.6409965,1.9284081000000002
8616,12:34:46.883000,1.3933655,-7.2062368,-2.6598437,1.7501923,1.6409965,1.9284081000000002
8617,12:34:46.892000,2.1235654,-7.4288883000000006,-2.5545032,1.6634494999999998,1.3416727,1.7561442999999999
8618,12:34:46.903000,2.1690536,-7.455223599999999,-2.5664737,1.6634494999999998,1.1046572000000001,1.4067296999999999
8619,12:34:46.912000,2.422828,-7.3115773,-2.6287205,1.6634494999999998,1.1046572000000001,1.4067296999999999
8620,12:34:46.921000,3.0141702,-7.395371000000001,-2.7053316,1.6842188999999999,1.1767391999999999,1.2442396999999998
8621,12:34:46.933000,2.3701577,-7.273272,-2.5305624,1.4520903,1.4809499,0.9754591999999999
8622,12:34:46.942000,2.1858122000000004,-7.5868988,-2.6382967999999996,1.4520903,1.4809499,0.9754591999999999
8623,12:34:46.952000,2.5856267999999996,-8.5158091,-2.1139894,1.0501413,1.5371493999999999,0.8190778000000001
8624,12:34:46.961000,2.6071734,-9.243615199999999,-2.0924423,1.0501413,1.5371493999999999,0.8190778000000001
8625,12:34:46.971000,2.1858122000000004,-9.7559519,-2.3246701,0.9010904000000001,1.3050208,0.641927
8626,12:34:46.983000,2.0732894,-9.6290646,-2.1522946,0.997607,1.0912182,0.6223794
8627,12:34:46.990000,2.1115949,-8.7576132,-1.8650029,0.997607,1.0912182,0.6223794
8628,12:34:47.004000,1.5010998,-8.6259384,-2.0325898999999996,1.2346225,0.5670963000000001,0.6981265999999999
8629,12:34:47.009000,2.5090156,-8.6522732,-1.6567163,1.2346225,0.5670963000000001,0.6981265999999999
8630,12:34:47.019000,3.5719953,-8.1806355,-1.3406953000000001,1.309148,0.2531118,0.7237829000000001
8631,12:34:47.031000,3.1051458999999997,-7.9843197,-1.1659261,1.3384695,-0.0559857,0.8031953000000001
8632,12:34:47.039000,3.006988,-7.895737599999999,-1.0510093999999999,1.3115914,-0.1329547,0.9412507
8633,12:34:47.051000,3.0405054,-8.269216499999999,-0.8163876999999999,1.2395093000000001,-0.1549458,0.9632419
8634,12:34:47.058000,2.6263263,-8.6666374,-0.7325941999999999,1.2395093000000001,-0.1549458,0.9632419
8635,12:34:47.068000,2.2336943,-9.111940400000002,-0.6895005,1.0538065,-0.0657596,1.0389892
8636,12:34:47.078000,2.0804718,-9.339379300000001,-0.6440126,1.0538065,-0.0657596,1.0389892
8637,12:34:47.087000,1.8889439,-9.4255667,-0.6895005,0.9707289000000001,-0.019333799999999998,1.0585368999999998
8638,12:34:47.098000,2.0158311999999996,-9.4662657,-0.6583770999999999,0.8815427,0.060078599999999996,1.0658671999999998
8639,12:34:47.106000,1.8769734,-9.4758434,-0.5961305,0.8815427,0.060078599999999996,1.0658671999999998
8640,12:34:47.117000,1.8243033,-9.4016256,-0.5769778,0.8253431,0.0698524,1.0267719000000002
8641,12:34:47.126000,1.6854455000000002,-9.0903931,-0.5362781,0.8253431,0.0698524,1.0267719000000002
8642,12:34:47.135000,1.4747648000000002,-8.8773184,-0.629648,0.8094606,0.05396990000000001,1.0072242
8643,12:34:47.147000,1.5920756,-8.611573199999999,-0.6152834,0.7654784,-0.0266642,0.9510245999999999
8644,12:34:47.155000,1.8817616999999998,-8.7169142,-0.6895005,0.7654784,-0.0266642,0.9510245999999999
8645,12:34:47.166000,2.0014665000000003,-8.8701363,-0.7110473,0.7129439999999999,-0.10974180000000001,0.9009337
8646,12:34:47.174000,2.1810241,-8.793524699999999,-0.7134414000000001,0.7129439999999999,-0.10974180000000001,0.9009337
8647,12:34:47.184000,2.3414285,-8.5397501,-0.751747,0.7178309,-0.12195910000000001,0.8899381
8648,12:34:47.195000,2.3893106,-8.230911299999999,-0.7685057,0.7422655,-0.13051120000000002,0.908264
8649,12:34:47.203000,2.4994389999999997,-8.051354400000001,-0.629648,0.7667001,-0.1231808,0.9412507
8650,12:34:47.217000,2.3462167000000003,-8.1064186,-0.557825,0.7679218000000001,-0.0755334,1.0218849
8651,12:34:47.222000,2.0685015,-8.0752954,-0.459667,0.7679218000000001,-0.0755334,1.0218849
8652,12:34:47.233000,1.9679491999999998,-8.178241700000001,-0.2968683,0.7324917,0.003879,1.0817497
8653,12:34:47.243000,1.7620566000000002,-8.3147049,-0.2992623,0.7324917,0.003879,1.0817497
8654,12:34:47.252000,1.6399577,-8.285976400000001,-0.1723751,0.7019484,0.0344222,1.1110712
8655,12:34:47.264000,1.4005477,-8.4751101,-0.095764,0.6750704000000001,0.0955087,1.107406
8656,12:34:47.272000,1.1755025,-8.7528248,-0.0263351,0.6750704000000001,0.0955087,1.107406
8657,12:34:47.281000,0.9600335999999999,-8.839013099999999,0.0670348,0.6481923,0.1455996,1.0817497
8658,12:34:47.291000,0.7613234,-9.018569900000001,0.1484341,0.6481923,0.1455996,1.0817497
8659,12:34:47.300000,0.5721896,-9.2555857,0.1963161,0.6420836999999999,0.16270379999999998,1.075641
8660,12:34:47.313000,0.36629709999999993,-9.346562400000002,0.2034984,0.6359751,0.17980810000000003,1.062202
8661,12:34:47.333000,0.019152799999999998,-9.521330800000001,0.435726,0.6359751,0.17980810000000003,1.062202
8662,12:34:47.339000,-0.2034984,-9.7487698,0.5051548,0.6530793,0.184695,1.0243284
8663,12:34:47.348000,-0.2633509,-9.811017,0.557825,0.6628531,0.1871384,1.0023372
8664,12:34:47.361000,-0.27053309999999997,-9.7344065,0.5937365,0.6799573,0.184695,0.9827896
8665,12:34:47.368000,-0.2777155,-9.7487698,0.6081011,0.6958398,0.1810298,0.9595767
8666,12:34:47.379000,-0.2729273,-9.8349581,0.6128892,0.7251613,0.184695,0.9241465
8667,12:34:47.388000,-0.28729190000000004,-9.7990456,0.6535890000000001,0.7251613,0.184695,0.9241465
8668,12:34:47.397000,-0.3854499,-9.7296171,0.7565352,0.7459307,0.18591670000000002,0.9094858
8669,12:34:47.407000,-0.5386721999999999,-9.641036,0.8427228000000001,0.7703651999999999,0.1883602,0.9009337
8670,12:34:47.416000,-0.5937365,-9.7248287,0.9360925999999999,0.7960216,0.1932471,0.8972684999999999
8671,12:34:47.429000,-0.4740316,-9.811017,0.9935510000000001,0.8338952,0.1822515,0.9009337
8672,12:34:47.436000,-0.5147311999999999,-9.746376,1.0246743,0.8338952,0.1822515,0.9009337
8673,12:34:47.449000,-0.557825,-9.5692129,1.1060736,0.9096424999999999,0.20668609999999998,0.9143726999999999
8674,12:34:47.455000,-0.6272539,-9.415989900000001,1.1755025,0.9096424999999999,0.20668609999999998,0.9143726999999999
8675,12:34:47.466000,-0.533884,-9.423173,1.1587437,0.9670638,0.23112070000000004,0.9192596
8676,12:34:47.474000,-0.5554309000000001,-9.2412214,1.211414,0.9670638,0.23112070000000004,0.9192596
8677,12:34:47.483000,-0.7325941999999999,-9.1263037,1.3263308,0.9866113999999999,0.2421163,0.9204813000000001
8678,12:34:47.495000,-0.7230178,-9.0616636,1.2305667,1.0391457,0.27510290000000004,0.913151
8679,12:34:47.503000,-1.1012853,-9.238826800000002,1.3550598999999999,1.0391457,0.27510290000000004,0.913151
8680,12:34:47.514000,-1.0845268,-8.7169142,1.6758691000000003,1.0819063,0.2848768,0.9180379000000001
8681,12:34:47.523000,-0.9336985000000001,-8.7576132,1.7764213,1.0819063,0.2848768,0.9180379000000001
8682,12:34:47.532000,-1.2592959,-8.6786079,1.8362738,1.083128,0.23722929999999998,0.9363638000000001
8683,12:34:47.545000,-1.3574538999999999,-8.5397501,2.0445604,1.0782411,0.2518901,0.9681287000000001
8684,12:34:47.552000,-1.3502717,-8.2428818,2.1403244,1.0782411,0.2518901,0.9681287000000001
8685,12:34:47.565000,-2.0708954,-8.542143800000002,2.0325898999999996,1.0672455,0.2628857,0.9681287000000001
8686,12:34:47.571000,-2.4180398,-8.4224386,2.3581872,1.0672455,0.2628857,0.9681287000000001
8687,12:34:47.580000,-1.673475,-8.3290691,2.6430849999999997,1.029372,0.3093114,0.9876764000000001
8688,12:34:47.592000,-2.0373781,-8.3314638,2.8441892,0.9853896999999999,0.16636900000000002,0.9998937
8689,12:34:47.600000,-2.4300102999999997,-8.321887,2.9998057,0.9853896999999999,0.16636900000000002,0.9998937
8690,12:34:47.613000,-2.3462167000000003,-8.233305900000001,3.1314812,0.9633985999999999,0.1883602,0.9913417
8691,12:34:47.620000,-2.5305624,-8.1207829,3.3397677000000003,0.9633985999999999,0.1883602,0.9913417
8692,12:34:47.630000,-2.7053316,-7.888555499999999,3.4259553,0.9524029,0.1736994,1.0060023999999999
8693,12:34:47.645000,-2.8274305,-7.7449093,3.6031184,0.9218597,0.1712559,1.0292153
8694,12:34:47.648000,-2.8848889,-7.7185745,3.8209815000000003,0.875434,0.1651473,1.0499847
8695,12:34:47.660000,-3.1434517000000004,-7.776032400000001,3.9191399,0.8302299999999999,0.17858629999999998,1.0805280000000002
8696,12:34:47.667000,-3.5600247000000005,-7.649145599999999,3.9765980000000005,0.8302299999999999,0.17858629999999998,1.0805280000000002
8697,12:34:47.677000,-4.0675735,-7.512682000000001,4.1513672,0.7899129,0.20302089999999998,1.1122929
8698,12:34:47.687000,-4.436265000000001,-7.2469368,4.2327666,0.7618132,0.2189034,1.1232885
8699,12:34:47.698000,-4.852837999999999,-7.0745621,4.383595,0.7337134,0.2079078,1.1122929
8700,12:34:47.709000,-5.3532052000000006,-6.962039,4.4242945,0.6347533000000001,0.1480431,1.0707541999999999
8701,12:34:47.716000,-5.8032956,-6.9811921,4.486540799999999,0.6347533000000001,0.1480431,1.0707541999999999
8702,12:34:47.727000,-6.1384692,-7.081744199999999,4.4985113,0.5382366999999999,0.0967304,1.0328805
8703,12:34:47.737000,-6.2988739,-7.0506210000000005,4.5727286,0.4783719,0.007544199999999999,0.9986721
8704,12:34:47.746000,-6.3970318,-7.0194974000000006,4.6613107000000005,0.4478287,-0.0938593,0.9876764000000001
8705,12:34:47.758000,-6.528707499999999,-7.0147095,4.759468599999999,0.446607,-0.2025933,0.9485812
8706,12:34:47.765000,-6.581377499999999,-6.875851600000001,4.9821196,0.45027219999999996,-0.2978882,0.8997120000000001
8707,12:34:47.780000,-6.638835899999999,-6.6316533,5.063519,0.48814579999999996,-0.49214309999999994,0.7286698
8708,12:34:47.785000,-6.586165400000001,-6.416184400000001,5.2622290000000005,0.48814579999999996,-0.49214309999999994,0.7286698
8709,12:34:47.796000,-6.5095544,-6.277327099999999,5.3244753,0.4233941,-0.6582984000000001,0.5759536999999999
8710,12:34:47.804000,-6.4329433,-6.143257599999999,5.281382099999999,0.4233941,-0.6582984000000001,0.5759536999999999
8711,12:34:47.813000,-6.547860099999999,-5.9158182,5.257441,0.3671946,-0.7316020999999999,0.4904326
8712,12:34:47.826000,-6.4832196,-5.6620436,5.2933525999999995,0.31710370000000004,-0.7963538,0.4305679
8713,12:34:47.833000,-6.423367,-5.2909579,5.1497064,0.2095915,-0.9014225,0.2815169
8714,12:34:47.844000,-6.2078981,-4.9605727,5.1832242,0.15217020000000003,-0.9539568000000002,0.2057697
8715,12:34:47.861000,-5.8966651,-4.601458099999999,5.1281595,0.15217020000000003,-0.9539568000000002,0.2057697
8716,12:34:47.874000,-5.678801999999999,-4.8672032,5.214346900000001,0.012893,-1.0003826999999998,0.0261754
8717,12:34:47.881000,-5.5423384,-5.0563364,5.4154515,-0.06163250000000001,-0.9979391,-0.055680499999999994
8718,12:34:47.892000,-5.5040331,-5.0419722,5.4537568,-0.1019495,-0.994274,-0.0959975
8719,12:34:47.901000,-5.6189499000000005,-5.1592832,5.5758562000000005,-0.1349362,-0.9783915000000001,-0.11676689999999999
8720,12:34:47.910000,-5.6500731,-5.413057299999999,5.6524668,-0.189914,-0.9564003000000001,-0.1534188
8721,12:34:47.922000,-5.6596494,-5.5806441,5.5495209999999995,-0.2656613,-0.9344091999999998,-0.20473139999999998
8722,12:34:47.929000,-5.5112157,-5.8320246,5.6428905,-0.3414085,-0.9173049999999999,-0.26093099999999997
8723,12:34:47.941000,-5.413057299999999,-5.872724099999999,5.743443,-0.46724659999999996,-0.9148615,-0.3427869
8724,12:34:47.949000,-5.2478647,-5.8990593,5.7003489,-0.46724659999999996,-0.9148615,-0.3427869
8725,12:34:47.960000,-5.1880121,-6.1504392999999995,5.8128719,-0.5979717,-0.8476664,-0.4319731
8726,12:34:47.969000,-5.2622290000000005,-6.0810108,5.834418299999999,-0.5979717,-0.8476664,-0.4319731
8727,12:34:47.978000,-5.3196874,-5.987640900000001,5.8320246,-0.6248497,-0.7926886,-0.4783988
8728,12:34:47.990000,-5.3220816,-5.8942709,5.6955609,-0.6908231,-0.6851764,-0.5907979999999999
8729,12:34:47.997000,-5.2598348,-5.9948235,5.5710678,-0.6908231,-0.6851764,-0.5907979999999999
8730,12:34:48.008000,-4.8576264,-6.4449139,5.6237378,-0.8313219999999999,-0.6399724,-0.7459576
8731,12:34:48.017000,-4.409930200000001,-6.4401255,5.7506251,-0.8313219999999999,-0.6399724,-0.7459576
8732,12:34:48.026000,-4.177702399999999,-6.2653565,5.743443,-0.8740825999999999,-0.6216465,-0.7960484999999999
8733,12:34:48.039000,-4.1585493,-6.2653565,5.5255799,-0.8545349,-0.5642252,-0.8485828999999999
8734,12:34:48.046000,-4.1824902999999996,-6.0714345000000005,5.2646232,-0.9034040999999999,-0.4420522,-0.9218867000000001
8735,12:34:48.057000,-4.0220861,-6.2749329000000005,5.1664648,-0.9034040999999999,-0.4420522,-0.9218867000000001
8736,12:34:48.066000,-3.7898582999999997,-6.3419676,5.1137948,-0.9864816999999999,-0.4163959,-0.9573168
8737,12:34:48.075000,-3.7084589,-6.3084502,5.0132432,-1.0671158,-0.4017352,-0.9903035
8738,12:34:48.085000,-3.6869121,-6.1983213,4.8169265,-1.1110981000000002,-0.3834092,-1.0110728999999998
8739,12:34:48.094000,-3.6390300000000004,-6.1576219000000005,4.6086402,-1.1367544,-0.3540877,-1.0379509
8740,12:34:48.108000,-3.6342421000000003,-6.277327099999999,4.5990634,-1.2393796000000001,-0.3492008,-1.0990374
8741,12:34:48.114000,-3.8042231,-6.1552280999999995,4.4937234,-1.2393796000000001,-0.3492008,-1.0990374
8742,12:34:48.124000,-3.8856222999999996,-6.1097398,4.2974076,-1.3310094,-0.3858527,-1.1943322
8743,12:34:48.134000,-3.8592873,-6.511948599999999,4.0532093,-1.3310094,-0.3858527,-1.1943322
8744,12:34:48.143000,-3.8616812000000005,-6.4904013,3.7467644,-1.3762133,-0.4335001,-1.2395363000000001
8745,12:34:48.156000,-3.6318479,-6.4975839,3.3349794999999998,-1.4018697,-0.5239081,-1.384922
8746,12:34:48.163000,-3.246398,-5.1856179000000004,3.8449225,-1.4018697,-0.5239081,-1.384922
8747,12:34:48.173000,-3.0093822,-5.906241400000001,3.3708911,-1.4165305000000001,-0.5165777,-1.5877291
8748,12:34:48.182000,-3.2847035000000004,-5.573462,3.6174831,-1.4165305000000001,-0.5165777,-1.5877291
8749,12:34:48.191000,-2.8801007000000003,-5.848783,3.3684969,-1.5118253000000001,-0.49336490000000005,-1.6451504000000001
8750,12:34:48.204000,-1.6064403,-7.237360499999999,3.5552367999999994,-1.5472555000000001,-0.483591,-1.6805806
8751,12:34:48.210000,-0.8929988000000001,-6.9285220999999995,2.8322186,-1.7195194,-0.632642,-1.7905363
8752,12:34:48.223000,0.09097569999999999,-6.823181599999999,1.3885771999999998,-1.9321003,-0.6399724,-1.7880927
8753,12:34:48.230000,0.7325941999999999,-7.1128674,0.9791864,-1.8685703000000002,-0.4982518,-1.9212613
8754,12:34:48.240000,1.1826848,-7.634780900000001,0.9863687,-1.8172576,-0.4652651,-1.9725738999999998
8755,12:34:48.250000,1.4460356,-7.831097099999999,1.2257784999999999,-1.8172576,-0.4652651,-1.9725738999999998
8756,12:34:48.259000,1.6279871000000001,-7.708998200000001,1.4436415,-1.8368053,-0.46159989999999995,-1.8491793
8757,12:34:48.271000,1.721357,-7.285242599999999,1.2209903999999998,-1.7720537,-0.3944048,-1.6708068
8758,12:34:48.279000,1.8578206000000002,-7.0218916,0.7900524999999999,-1.7720537,-0.3944048,-1.6708068
8759,12:34:48.288000,2.0110431,-7.0338621,0.6033128000000001,-1.7451756999999999,-0.3565312,-1.6390418000000002
8760,12:34:48.298000,2.1786296000000003,-6.9740095,0.3734794,-1.7439539000000002,-0.3052185,-1.6072768
8761,12:34:48.308000,2.3150935,-6.7776933,0.1005521,-1.7586147,-0.25024070000000004,-1.5425252
8762,12:34:48.320000,2.5257742000000003,-6.5430722,-0.059852499999999996,-1.7952666000000002,-0.1415068,-1.4020263000000002
8763,12:34:48.327000,2.5616858,-6.3204203,-0.2585627,-1.7952666000000002,-0.1415068,-1.4020263000000002
8764,12:34:48.338000,2.7101197,-6.2725387,-0.5841601,-1.8135926,-0.0608726,-1.3311659
8765,12:34:48.346000,2.8513715,-5.9086356,-0.8163876999999999,-1.8612398999999997,0.0368657,-1.2615273999999999
8766,12:34:48.356000,2.956712,-5.8032956,-1.1012853,-1.9284351000000002,0.11261289999999999,-1.1967756999999999
8767,12:34:48.367000,2.8848889,-5.669226200000001,-1.4627944,-2.0017388,0.1895819,-1.1356893
8768,12:34:48.375000,2.6837847000000004,-5.7147136,-1.6830512999999998,-2.0872599999999997,0.2909854,-1.1136981000000001
8769,12:34:48.388000,2.52338,-5.767384099999999,-2.039772,-2.2387542999999996,0.47057970000000005,-1.132024
8770,12:34:48.395000,2.592809,-6.112133999999999,-2.1642652,-2.2387542999999996,0.47057970000000005,-1.132024
8771,12:34:48.405000,2.6382967999999996,-5.8296304,-2.449163,-2.4354527000000004,0.509675,-1.2346493
8772,12:34:48.415000,2.7268784,-5.5447326,-2.5736562999999997,-2.4354527000000004,0.509675,-1.2346493
8773,12:34:48.425000,2.6430849999999997,-5.499245200000001,-3.1195107,-2.519752,0.509675,-1.3458267
8774,12:34:48.436000,2.6742082000000003,-5.5926147,-3.0788109,-2.7250028,0.45958409999999994,-1.6879109
8775,12:34:48.444000,2.6766026000000003,-5.9613061,-3.1195107,-2.7250028,0.45958409999999994,-1.6879109
8776,12:34:48.454000,2.7196963,-6.7776933,-3.4618669,-2.8997099,0.392389,-2.0984119999999997
8777,12:34:48.463000,3.126693,-7.5414109,-3.6438181000000003,-2.8997099,0.392389,-2.0984119999999997
8778,12:34:48.472000,4.0508150999999994,-7.9029198,-3.7371883,-2.9168141,0.3496284,-2.3427578999999996
8779,12:34:48.485000,4.9318433,-8.4152575,-3.9406865,-2.8728317999999997,0.1810298,-2.4844785
8780,12:34:48.492000,5.6907725,-9.0712404,-4.1058793,-2.8728317999999997,0.1810298,-2.4844785
8781,12:34:48.502000,6.0474935,-9.4590836,-4.1250324,-2.7738718999999996,0.225012,-2.4441613999999996
8782,12:34:48.511000,5.848783,-9.370502499999999,-3.9813862,-2.7738718999999996,0.225012,-2.4441613999999996
8783,12:34:48.521000,5.3077168,-8.6019974,-3.9574451,-2.655364,0.3264156,-2.3623056
8784,12:34:48.533000,4.558363900000001,-7.141596300000001,-4.1250324,-2.3511534,0.5255575,-2.3317623
8785,12:34:48.540000,4.3644419,-6.0307345,-4.1633377000000005,-2.3511534,0.5255575,-2.3317623
8786,12:34:48.553000,4.8672032,-5.4585452000000005,-4.436265000000001,-2.3890271,0.3728413,-2.4441613999999996
8787,12:34:48.560000,5.4417862999999995,-5.0084542999999995,-4.699616000000001,-2.3890271,0.3728413,-2.4441613999999996
8788,12:34:48.570000,5.9828529,-4.843262200000001,-4.879172799999999,-2.6688032,0.1455996,-2.6811769
8789,12:34:48.579000,6.418578599999999,-4.8648086,-5.2694116,-2.6688032,0.1455996,-2.6811769
8790,12:34:48.589000,6.8590932,-4.6397634000000005,-5.8056893,-2.8630581000000004,0.0441961,-2.8009063999999997
8791,12:34:48.601000,7.419312,-3.7491589,-6.5502539,-3.0988519,-0.1915977,-2.9939396
8792,12:34:48.608000,7.957984,-2.1929946,-7.1751142,-3.0988519,-0.1915977,-2.9939396
8793,12:34:48.618000,8.9084406,-0.6966828,-7.9627724,-3.1745992000000003,-0.3333183,-3.0709087999999998
8794,12:34:48.628000,10.206043199999998,0.2537745,-8.9156237,-3.3163197,-0.4945866,-3.1674254
8795,12:34:48.649000,13.507505400000001,1.6806574,-10.3927832,-4.0017099,-0.8953139000000001,-3.3861148
8796,12:34:48.657000,15.494607,2.1044127999999995,-11.099041900000001,-4.1776385000000005,-0.8904269,-3.3103675999999997
8797,12:34:48.670000,17.6253548,1.5106763,-11.357603999999998,-4.268046900000001,-0.6754026,-3.2724941000000003
8798,12:34:48.675000,18.561447100000002,0.4907902,-10.7111979,-4.268046900000001,-0.6754026,-3.2724941000000003
8799,12:34:48.685000,16.6509571,0.9720040999999999,-11.060735699999999,-4.3670067999999995,0.6978213000000001,-3.0061569
8800,12:34:48.695000,15.446724900000001,1.7141746999999998,-10.062397,-4.3670067999999995,0.6978213000000001,-3.0061569
8801,12:34:48.705000,15.6214943,0.3734794,-10.3688421,-4.2900376,1.390542,-2.4295008
8802,12:34:48.716000,14.457962,-0.8690578999999999,-10.7255621,-3.8221157,2.2054355,-1.7636581999999998
8803,12:34:48.725000,13.256125500000001,-0.3974204,-10.675286300000002,-3.8221157,2.2054355,-1.7636581999999998
8804,12:34:48.736000,12.621688800000001,1.3837892,-10.5819159,-2.814189,2.3532646,-0.9182215
8805,12:34:48.743000,12.837157199999998,2.9064360000000002,-10.3951769,-2.814189,2.3532646,-0.9182215
8806,12:34:48.753000,12.829975099999999,3.4642611000000003,-11.498855599999999,-2.3230536,2.0991449,-0.7508445
8807,12:34:48.765000,10.361659,2.2001767000000005,-12.0973806,-1.9198830000000002,1.7008612,-0.7422924
8808,12:34:48.773000,8.1351471,-0.9049693000000001,-12.9640446,-1.6120071000000002,1.2549299999999999,-0.7056406
8809,12:34:48.783000,8.8581648,-2.3222756,-11.4294271,-1.4495171,0.9201761,-0.6360019
8810,12:34:48.792000,11.003277800000001,-2.6909671000000004,-9.957057,-1.1257589,0.2421163,-0.5639199
8811,12:34:48.802000,11.2355051,-1.0390389000000002,-8.6738195,-0.6199628,-0.47381720000000005,-0.44541210000000003
8812,12:34:48.815000,10.6728916,0.5985246999999999,-7.946013499999999,-0.055523800000000005,-0.8977573,-0.2548223
