,time,ax,ay,az,wx,wy,wz
11449,12:35:34.107000,-2.0661073,4.8672032,8.532568,0.6787356,-0.0046731,-0.2511572
11450,12:35:34.112000,-1.649534,5.6069794,8.4200449,0.6787356,-0.0046731,-0.2511572
11451,12:35:34.116000,-0.9720040999999999,5.736260400000001,8.5948153,0.6787356,-0.0046731,-0.2511572
11452,12:35:34.120000,-0.4165732,5.702743099999999,8.774372099999999,0.6787356,-0.0046731,-0.2511572
11453,12:35:34.125000,0.4740316,5.33884,8.669032099999999,0.6787356,-0.0046731,-0.2511572
11454,12:35:34.129000,0.4500906,4.5487876,9.5189371,0.6787356,-0.0046731,-0.2511572
11455,12:35:34.133000,0.3327797,3.9095633000000003,9.0903931,0.6787356,-0.0046731,-0.2511572
11456,12:35:34.137000,0.6272539,2.8465835999999998,9.1550341,0.6787356,-0.0046731,-0.2511572
11457,12:35:34.141000,0.8738461,2.4659216,9.2316446,0.6787356,-0.0046731,-0.2511572
11458,12:35:34.146000,1.1204382,1.8889439,9.3728971,0.6787356,-0.0046731,-0.2511572
11459,12:35:34.152000,0.4165732,1.7548743000000002,9.0736341,0.6787356,-0.0046731,-0.2511572
11460,12:35:34.156000,-0.0119705,1.8314854999999999,9.933116,0.6787356,-0.0046731,-0.2511572
11461,12:35:34.172000,0.3830558,2.1738417,9.8325644,0.8424473,0.2616639,-0.1412015
11462,12:35:34.177000,0.2394099,2.157083,9.068845699999999,0.8424473,0.2616639,-0.1412015
11463,12:35:34.208000,-0.6727418000000001,2.2001767000000005,9.4303551,0.8448908000000002,0.47180140000000004,-0.2193922
11464,12:35:34.213000,-0.9336985000000001,2.2935464,9.8253813,0.8448908000000002,0.47180140000000004,-0.2193922
11465,12:35:34.216000,-0.7876585,2.2576351000000003,9.2675562,0.8448908000000002,0.47180140000000004,-0.2193922
11466,12:35:34.219000,-1.2185962,2.2480588,9.4255667,0.8448908000000002,0.47180140000000004,-0.2193922
11467,12:35:34.222000,-1.3957596,1.8027563999999998,9.7607412,0.8448908000000002,0.47180140000000004,-0.2193922
11468,12:35:34.245000,-1.0127038000000002,1.4556118999999998,9.243615199999999,0.7972434,0.4204888,-0.2914743
11469,12:35:34.249000,-0.6727418000000001,1.5848933,9.12391,0.7972434,0.4204888,-0.2914743
11470,12:35:34.252000,-0.7780821,1.1946553,8.669032099999999,0.7972434,0.4204888,-0.2914743
11471,12:35:34.263000,-0.7278060000000001,1.0581916999999998,8.532568,0.8632168,0.43392780000000003,-0.2450485
11472,12:35:34.270000,-0.7182297,1.1874731,8.587632199999998,0.9475161,0.41682359999999996,-0.21328360000000002
11473,12:35:34.280000,-0.8163876999999999,1.3790008999999999,8.7288837,1.0452545,0.405828,-0.1766317
11474,12:35:34.288000,-0.8786343000000001,1.5824993,8.386528,1.0452545,0.405828,-0.1766317
11475,12:35:34.298000,-0.9815805000000001,1.9464022,8.7528248,1.1271102,0.3972759,-0.1583057
11476,12:35:34.308000,-1.2138082000000001,2.0661073,8.6714258,1.1991923,0.360624,-0.12287560000000002
11477,12:35:34.318000,-1.2928133999999998,2.4132514,8.4439859,1.2480613999999999,0.3532937,-0.0825585
11478,12:35:34.330000,-1.3119662,2.7005434,8.424833300000001,1.2883786,0.3141983,-0.0446849
11479,12:35:34.338000,-1.1802906000000002,3.0357172,8.252458599999999,1.3335825000000001,0.2189034,0.0200668
11480,12:35:34.347000,-1.1132559,3.3062503,8.2716112,1.3335825000000001,0.2189034,0.0200668
11481,12:35:34.356000,-0.9983392,3.5001721,8.221335400000001,1.3445781,0.1688125,0.0432796
11482,12:35:34.366000,-0.8499051,3.4498963,8.1997881,1.3506868,0.11872160000000001,0.0579404
11483,12:35:34.376000,-0.6535890000000001,3.5289016,8.312311200000002,1.3506868,0.11872160000000001,0.0579404
11484,12:35:34.386000,-0.6966828,3.8042231,8.2380943,1.38123,0.1016174,0.06771419999999999
11485,12:35:34.402000,-0.6655594,3.7371883,8.156694400000001,1.48019,0.13338239999999998,0.10803130000000001
11486,12:35:34.408000,-0.8738461,4.1489735,7.723362400000001,1.48019,0.13338239999999998,0.10803130000000001
11487,12:35:34.416000,-1.0749503,4.3021955,7.4767703999999995,1.5534938999999999,0.20302089999999998,0.11169649999999999
11488,12:35:34.425000,-1.0103096999999999,4.6613107000000005,7.4456468,1.5534938999999999,0.20302089999999998,0.11169649999999999
11489,12:35:34.434000,-0.8618754999999999,4.8839616999999995,7.2229962,1.7062099999999998,0.2017992,0.0945923
11490,12:35:34.444000,-0.8283582,4.7546802,6.6508064,1.7062099999999998,0.2017992,0.0945923
11491,12:35:34.453000,-1.041433,5.4441805,7.285242599999999,1.7355316000000003,0.2189034,0.0835967
11492,12:35:34.463000,-1.3885771999999998,5.595008900000001,6.8878222000000004,1.8222743000000001,0.3288591,0.09337050000000001
11493,12:35:34.472000,-1.4963118,5.855965599999999,6.88064,1.8222743000000001,0.3288591,0.09337050000000001
11494,12:35:34.482000,-1.7045983,6.1456513,6.576589599999999,1.8577044999999999,0.3459632,0.0884836
11495,12:35:34.492000,-1.817121,6.282115,6.2222624,1.8650348,0.3703979,0.0628273
11496,12:35:34.502000,-1.7596626,6.586165400000001,6.1241045,1.8613696,0.3765065,0.035949300000000003
11497,12:35:34.512000,-1.6279871000000001,6.9021864,6.1743803,1.8638131999999998,0.3728413,0.0273971
11498,12:35:34.521000,-1.4939176,6.978797900000001,5.875118700000001,1.8613696,0.36306740000000004,0.012736399999999998
11499,12:35:34.530000,-1.1946553,6.938097999999999,5.870329900000001,1.8137223000000002,0.36306740000000004,-0.0202503
11500,12:35:34.540000,-0.9073634,7.002739,5.853571400000001,1.8137223000000002,0.36306740000000004,-0.0202503
11501,12:35:34.549000,-0.6368303000000001,6.945280599999999,5.7458372,1.8247178,0.4070497,-0.03857619999999999
11502,12:35:34.559000,-0.5075489000000001,7.0338621,5.5447326,1.8442655,0.46935790000000005,-0.0312459
11503,12:35:34.569000,-0.43333190000000005,6.820787400000001,5.362781,1.8442655,0.46935790000000005,-0.0312459
11504,12:35:34.580000,-0.2130748,6.8638811,5.116189,1.8662566000000003,0.5414399999999999,-0.0288024
11505,12:35:34.589000,0.0502761,7.0051331999999995,4.843262200000001,1.9200127,0.6123003,-0.0288024
11506,12:35:34.598000,-0.059852499999999996,7.1822957999999995,4.464994,2.0055337,0.6941562,-0.0226938
11507,12:35:34.611000,-0.42854369999999997,7.4576173,4.1058793,2.1460326000000003,0.9385020000000001,0.0335058
11508,12:35:34.618000,-0.6631654,7.8430675999999995,3.8281641000000004,2.1460326000000003,0.9385020000000001,0.0335058
11509,12:35:34.627000,-0.7086533,8.2069702,3.7347938999999997,2.1973453,1.0276882999999999,0.0713794
11510,12:35:34.637000,-0.9672159,8.5924196,3.6055129,2.2217797999999997,1.0716705,0.1068096
11511,12:35:34.647000,-1.2042316000000002,8.946746800000001,3.5121427000000005,2.2132277,1.1132091999999998,0.13735279999999997
11512,12:35:34.656000,-1.3215424999999998,9.3226213,3.3206151,2.1668019,1.1523046000000001,0.1666743
11513,12:35:34.666000,-1.4651883999999997,9.5740013,3.1578162,2.1044939,1.1657438,0.2057697
11514,12:35:34.679000,-1.7045983,9.6937056,3.0141702,1.9542210999999998,1.1975086000000001,0.258304
11515,12:35:34.685000,-2.0349839,10.062397,2.3366406000000004,1.9542210999999998,1.1975086000000001,0.258304
11516,12:35:34.695000,-4.2734666,11.7334776,1.2425373,1.7831789,1.2256083,0.23875639999999998
11517,12:35:34.705000,-9.310649900000001,15.259985,-0.459667,1.7709616000000001,1.047236,-0.05690219999999999
11518,12:35:34.714000,-6.2031102,13.988719,-0.7182297,1.7709616000000001,1.047236,-0.05690219999999999
11519,12:35:34.727000,-3.2368214,12.492406800000001,0.4931844,1.6048063999999997,-0.5068039000000001,-1.3384963
11520,12:35:34.733000,-2.8058836,12.6240826,0.9121516,1.6048063999999997,-0.5068039000000001,-1.3384963
11521,12:35:34.743000,-3.1386635,11.125376699999999,1.3766067,1.1454362,-0.7254935,-1.0660506
11522,12:35:34.752000,-3.4882019,9.7439823,1.4723707000000001,0.6762921,-0.5544513000000001,-0.8913434000000001
11523,12:35:34.763000,-2.7580017999999997,8.9659004,2.1642652,0.23280429999999996,-0.4054003,-0.6335585
11524,12:35:34.776000,-2.3246701,8.5134153,2.3486105999999998,0.1680527,-0.4652651,-0.4906161
11525,12:35:34.782000,-2.300729,8.2668228,2.7915192,0.1680527,-0.4652651,-0.4906161
11526,12:35:34.792000,-2.449163,8.5397501,2.4300102999999997,0.13506600000000002,-0.39073959999999996,-0.44052520000000006
11527,12:35:34.801000,-2.6909671000000004,8.841406800000001,2.1929946,0.13506600000000002,-0.39073959999999996,-0.44052520000000006
11528,12:35:34.811000,-2.7963072999999996,9.593154,1.7405096999999998,0.2560172,-0.3773006,-0.49305959999999993
11529,12:35:34.820000,-3.0237467000000002,9.3681078,1.6830512999999998,0.3610859,-0.36752670000000004,-0.5284898
11530,12:35:34.831000,-3.1649985000000003,9.415989900000001,1.5561641000000002,0.3403165,-0.3638616,-0.572472
11531,12:35:34.841000,-3.2272451,9.571606599999999,1.4963118,0.2828952,-0.3736354,-0.5956849
11532,12:35:34.850000,-3.1195107,9.2747393,1.4867353,0.2535737,-0.39073959999999996,-0.5663634
11533,12:35:34.862000,-3.2583685,9.1454573,1.4843413,0.07397949999999999,-0.38096579999999997,-0.5150507000000001
11534,12:35:34.869000,-3.1482398999999996,9.107152000000001,1.6543223000000002,0.07397949999999999,-0.38096579999999997,-0.5150507000000001
11535,12:35:34.879000,-3.1793633,8.999417300000001,1.6710808000000001,0.0141148,-0.3638616,-0.4796206
11536,12:35:34.892000,-3.2535803,8.9850531,1.6710808000000001,-0.0762932,-0.30155329999999997,-0.40387340000000005
11537,12:35:34.899000,-3.3014622000000005,9.011387800000001,1.6902337,-0.0762932,-0.30155329999999997,-0.40387340000000005
11538,12:35:34.911000,-3.2152746,9.0903931,1.7285392,-0.1691447,-0.203815,-0.3550042
11539,12:35:34.918000,-3.3493443,9.0951815,1.623199,-0.1691447,-0.203815,-0.3550042
11540,12:35:34.928000,-3.3876498,9.1143341,1.7644508,-0.298648,-0.0706465,-0.27803520000000004
11541,12:35:34.937000,-3.4331373999999997,9.0616636,1.8147268,-0.298648,-0.0706465,-0.27803520000000004
11542,12:35:34.947000,-3.3014622000000005,9.076027900000001,2.0062547,-0.45502929999999997,0.0246484,-0.20473139999999998
11543,12:35:34.958000,-3.0237467000000002,9.0472994,2.2145412,-0.5271114,0.07473930000000001,-0.14242320000000003
11544,12:35:34.966000,-3.3062503,8.8557711,2.300729,-0.5271114,0.07473930000000001,-0.14242320000000003
11545,12:35:34.975000,-3.3756793,8.707337400000002,2.2360882999999996,-0.5991935,0.1700342,-0.0740064
11546,12:35:34.986000,-2.3749461,8.2787933,2.4252219,-0.6346235,0.3667327,0.0628273
11547,12:35:34.995000,-2.6646321,8.2668228,2.1044127999999995,-0.5881978,0.5609877,0.20699139999999996
11548,12:35:35.008000,-3.2631563999999997,8.7312784,1.7812095000000001,-0.5063419,0.7870076,0.33893809999999996
11549,12:35:35.014000,-3.0309291000000003,8.398497599999999,1.9440081000000002,-0.5063419,0.7870076,0.33893809999999996
11550,12:35:35.026000,-3.5289016,8.4224386,1.8841558,-0.2204573,1.1901784,0.6052751999999999
11551,12:35:35.034000,-2.5904147999999996,8.230911299999999,2.2504527999999997,-0.2204573,1.1901784,0.6052751999999999
11552,12:35:35.043000,-3.0333229999999998,7.8550382,1.9057026000000001,-0.0494152,1.214613,0.8557296999999998
11553,12:35:35.057000,-3.3277972,8.020231200000001,1.4412475,0.015336500000000001,1.1742959,0.9265899999999999
11554,12:35:35.062000,-4.2399492,9.2484026,1.6519281000000003,0.015336500000000001,1.1742959,0.9265899999999999
11555,12:35:35.075000,-4.9031138,10.2922306,1.5322232,0.1668309,0.9775974000000001,0.9107075000000001
11556,12:35:35.082000,-5.6452851,11.036794699999998,1.0845268,0.1668309,0.9775974000000001,0.9107075000000001
11557,12:35:35.092000,-5.1521006,11.762207,0.8068113,-0.2106835,0.32397209999999993,0.6859093
11558,12:35:35.102000,-4.3955655,11.9273996,0.7445647,-0.2106835,0.32397209999999993,0.6859093
11559,12:35:35.111000,-4.156155600000001,11.513220800000001,0.8307523000000001,-0.7677921,-0.07797689999999999,0.3462685
11560,12:35:35.122000,-4.455418099999999,11.5323744,0.9384867,-0.9522732,-0.05109880000000001,0.23875639999999998
11561,12:35:35.130000,-4.8743849,11.3288746,1.0557975,-0.9522732,-0.05109880000000001,0.23875639999999998
11562,12:35:35.140000,-5.082671599999999,11.0703135,1.3287247,-1.2760316,-0.0657596,0.029840600000000002
11563,12:35:35.150000,-4.7498922,10.601069500000001,1.6974159,-1.2760316,-0.0657596,0.029840600000000002
11564,12:35:35.160000,-4.2758603,10.0528212,2.1618712,-1.6657633,-0.3418704,-0.11676689999999999
11565,12:35:35.174000,-3.8257697,9.7607412,2.5066216,-1.8099273,-0.4347219,-0.15586229999999998
11566,12:35:35.179000,-3.5983305,9.5811834,2.6885729,-1.8099273,-0.4347219,-0.15586229999999998
11567,12:35:35.194000,-3.5025665999999998,9.2555857,2.837007,-2.0945902,-0.5177995,-0.1790751
11568,12:35:35.200000,-3.3613148,8.865347900000002,3.0165646,-2.0945902,-0.5177995,-0.1790751
11569,12:35:35.208000,-3.2320333,8.582843800000001,3.1673927,-2.2289805,-0.5556731,-0.19984449999999998
11570,12:35:35.216000,-2.9950175,8.151906,3.3661027000000003,-2.3487101000000004,-0.6069857,-0.1986228
11571,12:35:35.232000,-3.0452936,7.823914500000001,3.4594727,-2.5331912,-0.6717373999999999,-0.1974011
11572,12:35:35.237000,-3.1099343,7.409735700000001,3.5360837,-2.5808387,-0.6766243000000001,-0.20961839999999998
11573,12:35:35.246000,-3.1961217,7.0147095,3.4738371,-2.5808387,-0.6766243000000001,-0.20961839999999998
11574,12:35:35.255000,-3.272733,6.617289100000001,3.2296392999999997,-2.6174904999999997,-0.6839546999999999,-0.2218357
11575,12:35:35.265000,-3.153028,6.239021299999999,3.5696013,-2.6382599,-0.7144979,-0.22916599999999998
11576,12:35:35.274000,-3.1195107,6.1983213,4.0364504,-2.6419251,-0.7645888000000001,-0.2413833
11577,12:35:35.288000,-3.3062503,6.3180265,4.1465788,-2.6248209,-0.8806530999999999,-0.2328312
11578,12:35:35.295000,-3.2679447999999995,6.562224400000001,4.3812003,-2.6248209,-0.8806530999999999,-0.2328312
11579,12:35:35.304000,-3.1817572,6.768117,4.642157599999999,-2.7213376,-1.0321475,-0.30124809999999996
11580,12:35:35.314000,-2.8226426,6.646017999999999,4.9031138,-2.7213376,-1.0321475,-0.30124809999999996
11581,12:35:35.323000,-2.6598437,6.3036617999999995,4.828897,-2.8300714,-1.1384379999999998,-0.36477800000000005
11582,12:35:35.336000,-2.5401387000000004,5.7625957,5.1281595,-2.9669051,-1.2117417,-0.4173124
11583,12:35:35.343000,-2.2504527999999997,5.0946422,5.5758562000000005,-3.075639,-1.2435067,-0.4539643
11584,12:35:35.355000,-2.0325898999999996,4.5104818,5.8990593,-3.1733773,-1.2386198,-0.5101638
11585,12:35:35.362000,-1.817121,3.8808341,6.2845092000000005,-3.1733773,-1.2386198,-0.5101638
11586,12:35:35.372000,-1.6662928,3.4810195,6.9285220999999995,-3.1623818999999997,-1.2667196000000003,-0.46251640000000005
11587,12:35:35.382000,-1.6543223000000002,3.0045941000000003,7.5868988,-3.1623818999999997,-1.2667196000000003,-0.46251640000000005
11588,12:35:35.391000,-1.6303812,2.61675,8.010654400000002,-3.1245081000000003,-1.2667196000000003,-0.4075385
11589,12:35:35.404000,-1.4388534,2.3557932,8.4368038,-3.0060005000000003,-1.3131454,-0.27070479999999997
11590,12:35:35.411000,-1.3430893,2.2432703999999997,8.7552195,-2.9326966,-1.3388016,-0.21084009999999997
11591,12:35:35.426000,-1.2521136,2.2121472,8.8126774,-2.8618363999999996,-1.3461319999999999,-0.1546405
11592,12:35:35.431000,-1.2640841,2.4060693,8.793524699999999,-2.7946413,-1.3436885,-0.10210620000000001
11593,12:35:35.441000,-1.3191483999999998,2.640691,8.5780563,-2.7616546000000004,-1.3485756000000002,-0.0544587
11594,12:35:35.451000,-1.0222802,2.6023853,8.5014448,-2.7885325,-1.3803403,-0.043463199999999994
11595,12:35:35.459000,-0.5075489000000001,2.4084632000000004,8.3027344,-2.7885325,-1.3803403,-0.043463199999999994
11596,12:35:35.470000,-0.1651928,2.1451125,8.499051099999999,-2.8496192000000002,-1.4304313999999998,-0.0495718
11597,12:35:35.480000,0.05745840000000001,1.7620566000000002,8.637908,-2.9595747,-1.4377618,-0.0593456
11598,12:35:35.489000,0.08379349999999999,1.4220946,9.0042048,-2.9595747,-1.4377618,-0.0593456
11599,12:35:35.501000,0.17955739999999998,1.0366447,9.0832109,-2.9937832,-1.3925576000000002,-0.0862237
11600,12:35:35.508000,0.49797250000000004,0.7086533,9.2675562,-3.0414307000000003,-1.3534625,-0.11065830000000001
11601,12:35:35.519000,0.9720040999999999,0.3830558,9.351349800000001,-3.0939651,-1.3339148,-0.1265408
11602,12:35:35.528000,1.4723707000000001,-0.1197049,9.6625834,-3.0939651,-1.3339148,-0.1265408
11603,12:35:35.538000,1.8793674999999999,-0.6966828,10.3161716,-3.12573,-1.3388016,-0.0935541
11604,12:35:35.547000,2.2049651000000003,-1.1252263999999998,11.489279699999999,-3.1330602,-1.3143671000000001,-0.0605674
11605,12:35:35.558000,2.4994389999999997,-1.7692389,12.7844868,-3.129395,-1.1983027,0.05061
11606,12:35:35.570000,3.2272451,-2.7580017999999997,13.699032800000001,-3.1574948,-1.1262207,0.0738229
11607,12:35:35.576000,3.7922525,-3.6318479,13.588904399999999,-3.1574948,-1.1262207,0.0738229
11608,12:35:35.587000,4.0077214,-4.4482355,12.621688800000001,-3.0560913,-0.8256752,0.10803130000000001
11609,12:35:35.595000,4.0125093000000005,-4.7283449,11.0655241,-3.0560913,-0.8256752,0.10803130000000001
11610,12:35:35.606000,3.44032,-4.7690444,9.427961300000002,-2.8911578999999996,-0.6057640000000001,0.14223970000000002
11611,12:35:35.618000,2.8896773,-4.821714900000001,7.9627724,-2.6895726000000004,-0.3968483,0.1520135
11612,12:35:35.624000,2.5592916,-4.3452892,7.1607494,-2.5148652,-0.26245799999999997,0.15812220000000002
11613,12:35:35.636000,2.2384822,-4.524846599999999,6.8734574,-2.0335038,-0.1622762,0.09092710000000001
11614,12:35:35.644000,2.0852599,-4.2926192,6.9524631999999995,-2.0335038,-0.1622762,0.09092710000000001
11615,12:35:35.654000,1.6208049,-3.7204294,6.4784312,-1.8184793999999997,-0.13906329999999997,0.07870980000000001
11616,12:35:35.663000,1.3766067,-3.5696013,6.88064,-1.6230028,-0.113407,0.06771419999999999
11617,12:35:35.673000,1.1180441,-3.1745751,7.3283366999999995,-1.4519606000000003,-0.0559857,0.011514700000000001
11618,12:35:35.684000,0.9696100000000001,-3.3206151,7.5031056,-1.2772533000000001,-0.0156687,-0.09111060000000001
11619,12:35:35.692000,1.1419852,-3.9454749,7.778427099999999,-1.3114617,-0.0804203,-0.1460884
11620,12:35:35.702000,1.1108619,-4.9773316,7.8861612999999995,-1.3114617,-0.0804203,-0.1460884
11621,12:35:35.711000,1.3790008999999999,-5.7482309,8.4559574,-1.4434084999999999,-0.158611,-0.14975360000000001
11622,12:35:35.721000,1.7740271,-6.3802729000000005,8.8868952,-1.5203773999999999,-0.24046689999999998,-0.1143235
11623,12:35:35.734000,1.9416142,-6.6053185,9.0042048,-1.4617343999999999,-0.32598790000000005,-0.03613280000000001
11624,12:35:35.742000,1.6255928999999998,-6.8638811,8.9228058,-1.4617343999999999,-0.32598790000000005,-0.03613280000000001
11625,12:35:35.751000,1.5848933,-6.6819296,8.4368038,-1.3224573,-0.2673449,0.08726189999999999
11626,12:35:35.761000,1.1132559,-6.1839571,7.783214999999999,-1.2552621000000002,-0.2465755,0.1043661
11627,12:35:35.770000,0.8211759,-6.0810108,8.1136007,-1.2552621000000002,-0.2465755,0.1043661
11628,12:35:35.783000,0.48121379999999997,-6.0307345,7.1200494999999995,-1.2186103000000001,-0.2441321,0.15079179999999998
11629,12:35:35.790000,0.8546931999999999,-6.557436500000001,6.4090023,-1.2699228999999999,-0.38951779999999997,0.1886654
11630,12:35:35.801000,1.6375635,-7.4576173,6.3299971,-1.355444,-0.5104691,0.16300910000000002
11631,12:35:35.809000,2.3749461,-8.738459599999999,5.5064268,-1.355444,-0.5104691,0.16300910000000002
11632,12:35:35.819000,2.8801007000000003,-9.7248287,5.8799067,-1.2870271,-0.48603450000000004,0.0835967
11633,12:35:35.828000,2.9471354,-10.1342201,5.5662794,-1.0377944,-0.3699702,0.1031444
11634,12:35:35.838000,2.9016478,-10.7925968,5.6620436,-0.6834928000000001,-0.2636797,0.0750446
11635,12:35:35.853000,3.0021996,-11.357603999999998,5.8846945999999996,-0.253444,-0.1634979,0.0102929
11636,12:35:35.858000,3.1362693,-11.034400900000001,6.3252090999999995,0.2853387,-0.019333799999999998,-0.07767160000000001
11637,12:35:35.867000,3.1865456,-10.2299843,6.626865400000001,0.8167911,0.1712559,-0.1668578
11638,12:35:35.876000,3.2056982999999994,-9.382473,6.428154900000001,0.8167911,0.1712559,-0.1668578
11639,12:35:35.886000,3.4379258000000004,-9.5907602,5.9636998,1.2089661,0.36184570000000005,-0.2670397
11640,12:35:35.899000,3.5576307999999996,-10.0336676,5.8009014,1.6927709999999998,0.6611695,-0.4979465
11641,12:35:35.906000,3.6605771000000003,-9.506965600000001,6.217474500000001,1.6927709999999998,0.6611695,-0.4979465
11642,12:35:35.916000,4.1896729,-10.167736999999999,6.6053185,2.0641768,0.8407636999999999,-0.5822459
11643,12:35:35.925000,4.4434476,-9.9474802,6.8973985,2.3977089,0.9580496999999999,-0.5614765
11644,12:35:35.936000,3.5815718,-8.491867999999998,7.0338621,2.731241,1.0618968,-0.5162725
11645,12:35:35.949000,1.8913380000000002,-6.0020055999999995,7.088926299999999,3.2064939,1.3013556,-0.4356383
11646,12:35:35.953000,0.30165640000000005,-3.1195107,7.934042900000001,3.7367244,1.6422181,-0.34889549999999997
11647,12:35:35.965000,-0.8834224,-0.3710853,8.846195199999999,4.2828379,1.9708633000000002,-0.07034119999999999
11648,12:35:35.974000,-1.4077301000000002,1.9631610000000002,9.909174900000002,4.2828379,1.9708633000000002,-0.07034119999999999
11649,12:35:35.983000,-1.6399577,3.7730997000000004,10.6154337,3.8967709999999998,1.7167436999999999,0.14223970000000002
11650,12:35:35.995000,-2.0445604,5.14013,11.283387199999998,3.4874916,1.5566971,0.2131
11651,12:35:36.004000,-2.8010955,5.8990593,11.273811300000002,2.9878042000000002,1.4296372,0.2338694
11652,12:35:36.017000,-3.5696013,5.8607535,11.2187471,2.4087045,1.2879167,0.2240956
11653,12:35:36.022000,-3.6270595,5.0754895,10.5268517,1.7709616000000001,1.0765573999999998,0.19843929999999999
11654,12:35:36.031000,-3.1003580000000004,3.5696013,9.351349800000001,1.7709616000000001,1.0765573999999998,0.19843929999999999
11655,12:35:36.041000,-2.7675784,1.9511904999999998,8.580450099999998,1.1735358999999999,0.8126639,0.1214703
11656,12:35:36.052000,-2.5281682,0.6368303000000001,8.4727154,0.4233941,0.4070497,0.035949300000000003
11657,12:35:36.065000,-2.0804718,-0.5267016999999999,8.788737300000001,0.4233941,0.4070497,0.035949300000000003
11658,12:35:36.070000,-1.649534,-1.4699767,9.3274088,0.28045180000000003,0.2531118,0.0029625999999999997
11659,12:35:36.082000,-1.3119662,-2.039772,9.746376,0.3317644,0.0784045,-0.0068113
11660,12:35:36.091000,-1.1802906000000002,-2.1259596000000003,10.191678,0.3317644,0.0784045,-0.0068113
11661,12:35:36.110000,-1.091709,-1.8243033,10.2802601,0.4539374,0.051526499999999996,0.0090712
11662,12:35:36.112000,-1.2521136,-1.4340651000000002,10.5771284,0.4539374,0.051526499999999996,0.0090712
11663,12:35:36.119000,-1.3406953000000001,-1.0438271000000001,10.7111979,0.8461125,0.0722959,0.0212885
11664,12:35:36.130000,-1.6423517,-0.5626131999999999,10.7925968,0.9108641,0.0820697,0.0261754
11665,12:35:36.138000,-1.9583727,-0.3447502,10.7255621,0.9108641,0.0820697,0.0261754
11666,12:35:36.147000,-2.1810241,-0.3208092,10.7518969,0.9609549999999999,0.09795219999999999,0.035949300000000003
11667,12:35:36.158000,-1.7333275000000001,0.1604046,11.427033400000001,0.965842,0.0698524,0.034727499999999994
11668,12:35:36.167000,-3.1841512,-0.15082820000000002,10.5268517,0.9120859,-0.0107817,0.0432796
11669,12:35:36.179000,-4.2112193,-1.2952073999999998,10.988912599999999,0.7276047,-0.0657596,0.1605656
11670,12:35:36.187000,-2.7077258,-0.8762401,11.118194599999999,0.5541191999999999,-0.1940412,0.3792552
11671,12:35:36.199000,-1.3023897,-0.6679536,10.7734442,0.4380549,-0.528795,0.4721067
11672,12:35:36.206000,-1.4795530000000001,-0.46445519999999996,10.3760242,0.4771502,-0.8183449,0.4378982
11673,12:35:36.216000,-2.2265117,-0.32559740000000004,9.9618454,0.5883276,-0.8940921000000001,0.4317896
11674,12:35:36.226000,-2.157083,0.13406949999999998,9.5740013,0.7153875,-0.8574402,0.3719248
11675,12:35:36.236000,-1.6208049,0.241804,9.6697655,0.8595514999999999,-0.9246353999999999,0.0481665
11676,12:35:36.249000,-0.7086533,0.217863,9.7200413,0.8094606,-0.9783915000000001,-0.039798
11677,12:35:36.254000,0.122099,0.0813994,9.641036,0.7361568000000001,-0.9930521999999999,-0.1277625
11678,12:35:36.265000,0.8259639999999999,-0.3064446,9.4016256,0.7361568000000001,-0.9930521999999999,-0.1277625
11679,12:35:36.274000,1.3981537,-0.9289103000000001,9.2675562,0.66774,-0.9612873,-0.17418820000000002
11680,12:35:36.283000,1.7069923999999999,-1.2856309,9.111940400000002,0.6384185,-0.9014225,-0.2169487
11681,12:35:36.294000,1.8961263,-1.6088343999999999,8.83183,0.7899129,-0.6900633,-0.32568270000000005
11682,12:35:36.302000,2.1499007000000003,-1.64714,8.412862800000001,0.7899129,-0.6900633,-0.32568270000000005
11683,12:35:36.313000,2.3318522,-1.5298291000000002,8.1614828,0.9621768,-0.5691121,-0.3806605
11684,12:35:36.323000,2.449163,-1.1012853,8.1614828,1.1686491,-0.4652651,-0.4160906
11685,12:35:36.332000,2.4802864,-0.22025709999999998,8.2740059,1.3873386,-0.35775290000000004,-0.41486890000000004
11686,12:35:36.344000,2.0493486,0.11731079999999999,8.6714258,1.5974761,-0.23313649999999997,-0.3928778
11687,12:35:36.352000,1.6758691000000003,0.5793719,8.9419594,1.7538575,-0.0950811,-0.34889549999999997
11688,12:35:36.363000,1.3909714,1.5274348999999998,8.8701363,1.8540393,0.0197615,-0.2902525
11689,12:35:36.371000,0.6344361999999999,2.2241178,8.649879499999999,1.9407821,0.094287,-0.2694831
11690,12:35:36.381000,0.045487900000000005,2.8992536,8.4822922,1.9969816000000002,0.1810298,-0.2511572
11691,12:35:36.392000,0.10294629999999999,3.5049605,8.499051099999999,1.9713253000000002,0.2421163,-0.2169487
11692,12:35:36.400000,0.0263351,4.6206107,8.611573199999999,1.8980216,0.22623379999999998,-0.20473139999999998
11693,12:35:36.415000,-0.3519325,4.8743849,8.9874468,1.5547155000000001,0.1174999,-0.1802969
11694,12:35:36.430000,-0.038305599999999995,4.7139807000000005,9.116727800000001,1.5547155000000001,0.1174999,-0.1802969
11695,12:35:36.432000,0.35432659999999994,4.7953801,9.562029800000001,1.5547155000000001,0.1174999,-0.1802969
11696,12:35:36.442000,0.7685057,4.869597,9.643429800000002,0.7495959,-0.1659414,-0.188849
11697,12:35:36.448000,1.1491673999999998,4.582305,9.5572424,0.7495959,-0.1659414,-0.188849
11698,12:35:36.459000,1.4053360000000001,4.1681261,9.384866699999998,0.193709,-0.23069299999999998,-0.10821480000000001
11699,12:35:36.467000,1.4029418,3.8233757000000006,9.0353289,0.193709,-0.23069299999999998,-0.10821480000000001
11700,12:35:36.476000,1.1850789,3.7012767999999996,8.6546669,0.056875300000000004,-0.18915420000000002,-0.0727847
11701,12:35:36.488000,1.3263308,3.7204294,8.606784800000002,0.0018975,-0.041325,-0.009254700000000001
11702,12:35:36.497000,1.4532180000000001,3.270339,8.051354400000001,0.005562699999999999,0.035644,-0.027580700000000003
11703,12:35:36.509000,1.8721851999999999,3.7371883,8.1255713,0.005562699999999999,0.035644,-0.027580700000000003
11704,12:35:36.516000,2.7795486,3.9358983,8.5373564,0.032440699999999996,0.0661872,0.05061
11705,12:35:36.527000,2.0541368,2.8202484,8.1806355,-0.1740316,0.2738812,0.2436433
11706,12:35:36.536000,2.2408764,2.7915192,7.711391900000001,-0.1740316,0.2738812,0.2436433
11707,12:35:36.546000,2.2289058999999996,3.2535803,7.5031056,0.0165582,0.419267,0.27785170000000003
11708,12:35:36.555000,2.7077258,3.3301911,8.429621699999998,0.0165582,0.419267,0.27785170000000003
11709,12:35:36.564000,2.6239324,3.6486065,8.499051099999999,0.18027,0.4632493,0.3926943
11710,12:35:36.582000,2.2696054,4.0412387999999995,8.8054953,0.4160638,0.6733868000000001,0.5710666999999999
11711,12:35:36.585000,2.3869164,3.8856222999999996,8.6810017,0.4160638,0.6733868000000001,0.5710666999999999
11712,12:35:36.593000,1.9631610000000002,4.417111900000001,8.791131,0.4160638,0.7332515000000001,0.6126055
11713,12:35:36.603000,1.3622421,4.352471400000001,8.9084406,0.45760259999999997,0.7931161999999999,0.714009
11714,12:35:36.613000,1.1491673999999998,5.6189499000000005,9.698494,0.4979196,0.8713069999999999,0.8422905999999999
11715,12:35:36.624000,1.7261453000000002,5.767384099999999,9.6625834,0.9059771999999999,0.821216,0.9363638000000001
11716,12:35:36.632000,1.2856309,6.004399299999999,9.7248287,0.9059771999999999,0.821216,0.9363638000000001
11717,12:35:36.642000,0.8355404000000001,6.1983213,9.787075999999999,0.6213143,0.8590897,1.0695324
11718,12:35:36.651000,0.3208092,6.4353375,9.7056761,0.6213143,0.8590897,1.0695324
11719,12:35:36.662000,-0.3184151,6.052281400000001,9.1406689,0.4111768,0.9275065,1.1147364
11720,12:35:36.673000,-0.7900524999999999,5.4154515,8.424833300000001,0.4111768,0.9275065,1.1147364
11721,12:35:36.680000,-1.2592959,4.8336854,7.929255,0.21203490000000003,0.9311716999999998,1.1281754
11722,12:35:36.690000,-1.5130703,4.558363900000001,7.6850572,0.06298390000000001,0.9336151,1.0524281
11723,12:35:36.699000,-1.9176731,4.685251200000001,7.713786099999999,0.1423964,0.9751540000000001,0.9412507
11724,12:35:36.709000,-2.3629756,4.7163744,7.1128674,0.387964,1.0618968,0.8007519000000001
11725,12:35:36.720000,-2.5760503,4.7881975,7.165537400000001,0.8717688,1.3099077,0.4049115
11726,12:35:36.729000,-2.61675,4.5990634,5.901453500000001,0.8717688,1.3099077,0.4049115
11727,12:35:36.739000,-2.7029376,4.2830424,5.2047706,1.0342588,1.4161983,0.1886654
11728,12:35:36.748000,-2.4587395,3.8401343999999997,4.7379217,1.1100061,1.5652492,-0.0068113
11729,12:35:36.758000,-1.9942843000000001,3.1841512,4.3644419,1.4386513,1.5921273,-0.6164543
11730,12:35:36.768000,-2.2552409,2.8465835999999998,3.6797296999999998,1.8259395,1.6666526999999998,-0.8485828999999999
11731,12:35:36.778000,-2.2025707000000003,2.837007,2.8489776,1.8259395,1.6666526999999998,-0.8485828999999999
11732,12:35:36.790000,-2.7771543999999997,2.6766026000000003,1.9464022,2.6017377,1.9256593999999998,-1.1662325
11733,12:35:36.798000,-2.9088298999999997,1.8195150000000002,1.5681346999999999,2.8143187000000003,1.9562025,-1.3397181
11734,12:35:36.808000,-3.0859932999999997,1.1036795,1.4963118,3.0366732999999995,1.9085553,-1.5303079
11735,12:35:36.816000,-3.5456602999999998,1.4077301000000002,1.0725563,3.0366732999999995,1.9085553,-1.5303079
11736,12:35:36.826000,-4.1992487999999994,2.3869164,0.6320420999999999,3.7880371,1.5237105,-1.2981793
11737,12:35:36.836000,-4.3309245,3.2033041,0.5003666,4.093469600000001,1.2341606999999999,-1.136911
11738,12:35:36.846000,-4.201643499999999,3.9502629999999996,1.0701622,4.093469600000001,1.2341606999999999,-1.136911
11739,12:35:36.858000,-4.558363900000001,5.0012726999999995,1.1419852,4.4013453,0.5267791999999999,-0.6702104
11740,12:35:36.865000,-4.8504438,6.495190099999999,1.5322232,4.4013453,0.5267791999999999,-0.6702104
11741,12:35:36.875000,-5.5662794,8.4344101,2.0637131,4.3414807,0.16759079999999998,-0.31468709999999994
11742,12:35:36.885000,-5.848783,10.2994127,2.8801007000000003,4.1191258,-0.2868926,0.16300910000000002
11743,12:35:36.895000,-5.7793546,12.387066800000001,4.4027476,3.6817464999999996,-0.8232318000000001,0.5796188
11744,12:35:36.908000,-4.4841470999999995,14.486692399999999,6.665171099999999,2.5516467,-2.2111166,1.0915235
11745,12:35:36.914000,-1.4675825,16.1074963,9.1550341,2.5516467,-2.2111166,1.0915235
11746,12:35:36.924000,2.1738417,16.445064499999997,9.7439823,1.8528175,-2.8537462000000002,1.1917053
11747,12:35:36.933000,2.8777068,19.0761776,11.977676400000002,1.0684673,-3.1066442000000003,1.256457
11748,12:35:36.942000,3.8880162000000005,19.9691772,14.2113705,0.5333498000000001,-2.6484957000000002,1.2967739999999999
11749,12:35:36.956000,1.64714,15.3294144,11.8100891,-0.0420848,-0.2196975,-0.1155452
11750,12:35:36.961000,-1.6160166,10.071972800000001,5.4920626,-0.0420848,-0.2196975,-0.1155452
11751,12:35:36.972000,-5.2239237,7.5677462,1.4675825,-0.6676103,1.0362403,-0.6360019
11752,12:35:36.981000,-6.6771417,5.9493356,0.4093909,-0.6676103,1.0362403,-0.6360019
11753,12:35:36.991000,-5.1329474,4.1848845,1.6064403,-1.1049893999999998,0.0820697,-0.2364964
11754,12:35:37,-2.6981492,4.6158223,3.1697867000000004,-0.9571601000000001,-0.5104691,-0.085002
11755,12:35:37.010000,-0.7469588,6.239021299999999,4.6445513,-0.6639451,-0.7584801,-0.0226938
11756,12:35:37.020000,-0.5865541999999999,7.4767703999999995,5.4058752,-0.4049384,-0.6204246999999999,-0.0617891
11757,12:35:37.030000,-1.4029418,7.8837671,5.4872746,-0.4049384,-0.6204246999999999,-0.0617891
11758,12:35:37.040000,-1.8027563999999998,7.8837671,5.3532052000000006,-0.28643070000000004,-0.18915420000000002,-0.10699310000000001
11759,12:35:37.049000,-1.5609524,7.826309200000001,5.2119532,-0.28643070000000004,-0.18915420000000002,-0.10699310000000001
11760,12:35:37.059000,-1.4101242,7.9555898,4.910296400000001,-0.235118,-0.15738929999999998,-0.1546405
11761,12:35:37.071000,-1.8123327,8.429621699999998,4.630187,-0.1972444,-0.1170722,-0.14975360000000001
11762,12:35:37.079000,-2.2696054,8.7983131,4.723557,-0.1972444,-0.1170722,-0.14975360000000001
11763,12:35:37.089000,-2.4563452999999997,8.791131,5.0276074,-0.2571092,-0.07797689999999999,-0.1216538
11764,12:35:37.098000,-2.2241178,8.6929731,5.2598348,-0.2571092,-0.07797689999999999,-0.1216538
11765,12:35:37.108000,-2.1092009999999997,8.623543699999999,5.4417862999999995,-0.3695083,-0.0828638,-0.14486670000000001
11766,12:35:37.117000,-1.8865498,8.3554049,5.4657273,-0.3695083,-0.0828638,-0.14486670000000001
11767,12:35:37.126000,-1.8314854999999999,8.0920544,5.4178457,-0.40860359999999996,-0.0425467,-0.16197089999999997
11768,12:35:37.139000,-1.8506383999999998,7.8574319,5.1832242,-0.4244861,0.008765899999999998,-0.1912924
11769,12:35:37.146000,-2.0948365,7.9316492,5.097035900000001,-0.42326440000000004,0.0674089,-0.2083966
11770,12:35:37.155000,-2.4539514,7.888555499999999,4.8815675,-0.4134906,0.1541517,-0.2206139
11771,12:35:37.164000,-2.7484252000000002,7.9699545,4.8815675,-0.4244861,0.16270379999999998,-0.234053
11772,12:35:37.175000,-2.8322186,8.0154428,4.8121386,-0.4244861,0.16270379999999998,-0.234053
11773,12:35:37.188000,-2.8920712,8.0896597,4.9964838,-0.5136724,0.11872160000000001,-0.21450529999999998
11774,12:35:37.194000,-2.7556078,8.0561428,5.125765299999999,-0.5136724,0.11872160000000001,-0.21450529999999998
11775,12:35:37.206000,-2.6143558,7.948408099999999,5.1736474,-0.6285149,0.0099877,-0.183962
11776,12:35:37.213000,-2.693361,7.9651666,5.1521006,-0.6285149,0.0099877,-0.183962
11777,12:35:37.223000,-2.789125,7.7473035,5.116189,-0.6786058,-0.0291077,-0.1729665
11778,12:35:37.234000,-2.8992536,7.5342288,5.1497064,-0.7348053000000001,-0.0706465,-0.1460884
11779,12:35:37.242000,-3.0452936,7.448041,5.2047706,-0.8117744,-0.17693689999999998,-0.07156289999999998
11780,12:35:37.254000,-2.9088298999999997,7.5749283,5.3867221,-0.8166611999999999,-0.23435820000000004,-0.053237
11781,12:35:37.262000,-2.7723663,7.6754804000000005,5.508821,-0.8166611999999999,-0.23435820000000004,-0.053237
11782,12:35:37.271000,-2.8346131000000003,8.0561428,5.4776978,-0.8362089,-0.2820057,-0.039798
11783,12:35:37.281000,-2.5808383999999998,7.6299925,5.8248425,-0.8594218000000001,-0.2832274,-0.0446849
11784,12:35:37.291000,-2.4587395,7.278060000000001,5.6644373,-0.9742644,-0.3064403,-0.0727847
11785,12:35:37.305000,-2.4443748,6.8710637000000006,5.6835904,-1.0854416999999998,-0.31865759999999993,-0.07156289999999998
11786,12:35:37.312000,-2.5664737,6.2126861,5.6764078,-1.0854416999999998,-0.31865759999999993,-0.07156289999999998
11787,12:35:37.322000,-2.4060693,6.1169224,5.9565177,-1.1770715,-0.3455356,-0.0226938
11788,12:35:37.330000,-2.1522946,6.4353375,6.2605680999999995,-1.2027278000000001,-0.3748571,0.012736399999999998
11789,12:35:37.342000,-2.2217238,6.7729053,6.306056,-1.1514151000000001,-0.39196129999999996,0.0041843
11790,12:35:37.352000,-2.3629756,6.8590932,6.385061299999999,-1.1514151000000001,-0.39196129999999996,0.0041843
11791,12:35:37.359000,-2.4467689999999997,6.801634299999999,6.416184400000001,-1.1734062,-0.3736354,0.0066277
11792,12:35:37.371000,-2.5257742000000003,6.6196828,6.4090023,-1.2247188999999998,-0.3699702,0.0017408
11793,12:35:37.379000,-2.5592916,6.4353375,6.4401255,-1.2870271,-0.3821875,-0.0104765
11794,12:35:37.389000,-2.5616858,6.2581739,6.495190099999999,-1.4189739,-0.4127307,-0.0349111
11795,12:35:37.408000,-2.3605812000000004,5.9636998,6.6603823,-1.4189739,-0.4127307,-0.0349111
11796,12:35:37.419000,-2.4898627,6.0690403,6.713053200000001,-1.6339983,-0.5300168000000001,-0.0288024
11797,12:35:37.428000,-2.47071,5.796113,6.8183932,-1.6339983,-0.5300168000000001,-0.0288024
11798,12:35:37.438000,-2.5377447999999996,5.3962984,6.8375459,-1.7744971999999999,-0.5911031999999999,-0.0459066
11799,12:35:37.447000,-2.2959406,5.044365900000001,6.9644337,-1.7744971999999999,-0.5911031999999999,-0.0459066
11800,12:35:37.457000,-2.133142,4.9294496,6.9811921,-1.8319185000000002,-0.6717373999999999,-0.08011510000000001
11801,12:35:37.473000,-1.9248554,4.7163744,6.9213395,-1.8636834999999998,-0.7193848,-0.0727847
11802,12:35:37.477000,-1.7237511000000003,4.405141400000001,7.1439905,-1.8636834999999998,-0.7193848,-0.0727847
11803,12:35:37.487000,-1.4699767,4.1010914,7.2613015,-1.910109,-0.8061275999999999,-0.0617891
11804,12:35:37.495000,-1.4101242,3.8521049,7.2948189,-1.9149961,-0.8305621999999999,-0.07644989999999999
11805,12:35:37.504000,-1.575317,3.6725476,7.543805099999999,-1.9149961,-0.8305621999999999,-0.07644989999999999
11806,12:35:37.515000,-1.5130703,3.6318479,7.572534599999999,-1.9052221999999999,-0.8427795,-0.0483501
11807,12:35:37.523000,-1.3383013000000001,3.6486065,7.713786099999999,-1.888118,-0.8684358,-0.047128300000000005
11808,12:35:37.535000,-1.2712663,3.4068023999999997,7.7401209,-1.8783441000000003,-0.9283005999999999,-0.0373545
11809,12:35:37.544000,-1.1683203000000002,3.3277972,7.706604,-1.8783441000000003,-0.9771698,-0.021472
11810,12:35:37.553000,-1.1012853,3.2631563999999997,7.7329387999999994,-1.8844528000000003,-1.021152,-0.030024099999999998
11811,12:35:37.567000,-0.8283582,3.1290869999999997,7.764061900000001,-1.9272133999999999,-1.1384379999999998,-0.030024099999999998
11812,12:35:37.572000,-0.49557840000000003,3.0117762000000003,7.7903975999999995,-1.9272133999999999,-1.1384379999999998,-0.030024099999999998
11813,12:35:37.585000,-0.2585627,2.8537657000000003,7.941225500000001,-2.0029607,-1.2508371,-0.027580700000000003
11814,12:35:37.593000,-0.0430938,2.6981492,7.8717966,-2.0029607,-1.2508371,-0.027580700000000003
11815,12:35:37.602000,-0.023941,2.4994389999999997,7.646751400000001,-2.0493863,-1.2618327,-0.0483501
11816,12:35:37.612000,-0.007182300000000001,2.0158311999999996,7.483952499999999,-2.1031425,-1.2508371,-0.066676
11817,12:35:37.622000,0.009576399999999999,1.6662928,7.361853599999999,-2.2302022,-1.2459502,-0.07156289999999998
11818,12:35:37.635000,0.23222759999999998,1.7141746999999998,7.776032400000001,-2.266854,-1.2593892,-0.066676
11819,12:35:37.641000,0.5841601,1.4819472,8.2237291,-2.266854,-1.2593892,-0.066676
11820,12:35:37.653000,0.9552454,1.1228323,8.961112,-2.3707011000000002,-1.3180323,-0.0446849
11821,12:35:37.661000,1.4508239,0.6104951999999999,9.461478199999998,-2.3707011000000002,-1.3180323,-0.0446849
11822,12:35:37.673000,1.6591103999999999,0.5793719,9.6362467,-2.4281224999999997,-1.3314712,-0.019028599999999996
11823,12:35:37.681000,1.5154645,0.3974204,9.5500603,-2.465996,-1.3033714,0.015179900000000001
11824,12:35:37.689000,1.041433,0.36390300000000003,9.2555857,-2.5417433,-1.1909723,0.1251355
11825,12:35:37.702000,0.7876585,-0.0359115,9.3800793,-2.5551822,-1.1909723,0.1911089
11826,12:35:37.707000,0.6918946,-0.23462170000000002,9.370502499999999,-2.5331912,-1.220294,0.2057697
11827,12:35:37.718000,0.9169398000000001,-0.3423561,9.222067800000001,-2.5331912,-1.220294,0.2057697
11828,12:35:37.727000,1.0438271000000001,-0.6799241,9.0592699,-2.5209739,-1.2997062,0.2179869
11829,12:35:37.737000,0.8044171999999999,-0.6631654,9.1598225,-2.5221956000000003,-1.3986664,0.24730850000000001
11830,12:35:37.749000,0.581766,-0.3734794,9.116727800000001,-2.41224,-1.5293915,0.3694814
11831,12:35:37.756000,0.6320420999999999,0.1364636,9.2172804,-2.4207921000000003,-1.6442339,0.40002459999999995
11832,12:35:37.767000,1.0773443999999999,0.6368303000000001,9.207703599999999,-2.519752,-1.7810675999999999,0.4354548
11833,12:35:37.775000,1.7548743000000002,0.4500906,9.384866699999998,-2.519752,-1.7810675999999999,0.4354548
11834,12:35:37.785000,2.252847,-0.13885770000000003,9.4303551,-2.7433286,-1.9215665000000002,0.4488938
11835,12:35:37.794000,2.3486105999999998,-1.0222802,9.2651625,-2.9986701,-1.9765443999999999,0.4672197
11836,12:35:37.805000,2.3725517000000003,-2.0254076000000003,9.298680300000001,-3.3077676,-1.8922451,0.5038716
11837,12:35:37.821000,2.2576351000000003,-2.8537657000000003,9.1837626,-3.3016589,-1.8397107,0.48188050000000004
11838,12:35:37.825000,2.4156458,-2.9064360000000002,8.4344101,-3.2515681,-1.8213846999999999,0.41712879999999997
11839,12:35:37.833000,3.1075404,-2.7340607999999995,7.6778746,-3.2515681,-1.8213846999999999,0.41712879999999997
11840,12:35:37.843000,3.8377402000000003,-2.8417952,7.1703253,-3.2002554,-1.8690321,0.3206122
11841,12:35:37.853000,5.2765937,-4.3213482,7.4336767,-3.4018406999999997,-1.9435577000000002,0.18500020000000003
11842,12:35:37.865000,7.5988693,-6.9596448,8.1159954,-3.6266388999999997,-2.0107529,0.13735279999999997
11843,12:35:37.873000,10.038456,-9.753558199999999,8.1423302,-3.6266388999999997,-2.0107529,0.13735279999999997
11844,12:35:37.882000,11.628137599999999,-12.588171,7.2613015,-3.8147851999999998,-1.8348238000000001,0.22898249999999998
11845,12:35:37.892000,11.3121166,-13.593692800000001,6.176775,-3.4763663,-1.4182141000000001,0.2790734
11846,12:35:37.901000,9.0449047,-12.320032099999999,4.625399099999999,-3.4763663,-1.4182141000000001,0.2790734
11847,12:35:37.912000,6.516737,-9.7272234,3.7156413,-2.1336856,-0.5080256,0.39880290000000007
11848,12:35:37.921000,4.869597,-7.797579300000001,3.2080922000000003,-2.1336856,-0.5080256,0.39880290000000007
11849,12:35:37.932000,4.316559799999999,-6.8902159,3.3325856,-1.6779805,-0.3467574,0.41712879999999997
11850,12:35:37.942000,4.723557,-7.1368084000000005,3.7778878,-1.4922776000000002,-0.34309209999999996,0.39635940000000003
11851,12:35:37.951000,5.4681215,-7.754486099999999,4.0292683,-1.4140868999999998,-0.3724136,0.3206122
11852,12:35:37.963000,5.906241400000001,-8.3290691,4.2806487,-1.3530004999999998,-0.36874850000000003,0.26074749999999997
11853,12:35:37.971000,6.2509917999999995,-8.8557711,4.2638898,-1.278475,-0.3003316,0.244865
11854,12:35:37.980000,6.2270508,-9.064058300000001,4.3428949999999995,-0.9608253000000001,-0.048655300000000005,0.19721760000000002
11855,12:35:37.990000,6.0714345000000005,-8.9946289,4.3021955,-0.9608253000000001,-0.048655300000000005,0.19721760000000002
11856,12:35:37.999000,6.1480455,-8.6091785,4.5679407,-0.7763441999999999,0.0722959,0.244865
11857,12:35:38.009000,6.4616723,-8.3530102,4.685251200000001,-0.5588764,0.16636900000000002,0.2363129
11858,12:35:38.019000,7.7281508,-9.111940400000002,5.0060606,-0.33285640000000005,0.2470032,0.172783
11859,12:35:38.030000,9.214885699999998,-10.6489506,4.7618623,-0.43059480000000006,0.2812116,0.12880070000000002
11860,12:35:38.050000,5.4585452000000005,-10.3425074,1.3454834999999998,-0.24244839999999998,0.8028900999999999,0.11780510000000001
11861,12:35:38.057000,3.5408720999999996,-9.3800793,1.7165686999999998,0.324434,1.0313535,0.19355229999999998
11862,12:35:38.078000,5.367569400000001,-7.8071561,4.0316625,1.2468398,0.8322116,0.18744370000000002
11863,12:35:38.086000,6.193533400000001,-7.560564,4.7738328,1.5034028999999998,0.8297681,0.11658339999999999
11864,12:35:38.096000,5.8679361,-7.543805099999999,5.4010868,1.5034028999999998,0.8297681,0.11658339999999999
11865,12:35:38.106000,5.302928400000001,-7.270877799999999,5.855965599999999,1.6365714,0.9568279000000001,0.1471266
11866,12:35:38.116000,5.0946422,-6.9428864,6.310844400000001,1.6732233,1.0692270000000001,0.23020429999999997
11867,12:35:38.129000,4.4985113,-6.339573400000001,6.622077,1.6365714,1.1242048999999998,0.30106459999999996
11868,12:35:38.136000,3.7276117999999996,-6.0498877,6.8950043,1.5608242,1.1804044,0.3951377
11869,12:35:38.148000,3.3206151,-5.6500731,7.409735700000001,1.5156201999999999,1.1742959,0.4110202
11870,12:35:38.153000,3.2176687999999998,-5.2526526,7.4624062,1.5156201999999999,1.1742959,0.4110202
11871,12:35:38.163000,2.5066216,-5.1329474,7.646751400000001,1.4288775,1.1290917,0.41712879999999997
11872,12:35:38.173000,1.9176731,-4.879172799999999,7.7903975999999995,1.2553918,1.0423491,0.4867674
11873,12:35:38.183000,1.601652,-5.0587306,7.8023682,1.1820881,1.0435708000000001,0.5283062
11874,12:35:38.197000,1.1898671,-5.063519,7.783214999999999,1.0892366000000002,1.0105841,0.5002064
11875,12:35:38.203000,1.0941031,-4.8384733,7.646751400000001,1.1087843000000002,1.0289099,0.43911999999999995
11876,12:35:38.217000,0.9839745999999999,-5.1712537,7.634780900000001,1.0574718,1.002032,0.4159071
11877,12:35:38.223000,1.091709,-5.2311058,7.6970277000000005,1.0819063,0.9947016,0.39758119999999997
11878,12:35:38.231000,1.1731083,-5.3555989,7.7496977,1.1197799,0.9898146999999999,0.3426034
11879,12:35:38.241000,1.2640841,-5.4010868,7.536623,1.1197799,0.9898146999999999,0.3426034
11880,12:35:38.250000,1.2138082000000001,-5.5207915000000005,7.6108398,1.1234452,0.9861495000000001,0.32183390000000006
11881,12:35:38.260000,1.237749,-5.6979551,8.0010777,1.1368841,0.9409453999999999,0.24730850000000001
11882,12:35:38.270000,1.3071779,-5.4585452000000005,8.0417776,1.1368841,0.9409453999999999,0.24730850000000001
11883,12:35:38.280000,1.2952073999999998,-5.5638857,8.257247,1.1833098,0.8578679,0.20699139999999996
11884,12:35:38.290000,1.2592959,-5.633314599999999,8.4344101,1.2162966,0.8358768,0.226539
11885,12:35:38.300000,1.3574538999999999,-5.334052099999999,9.023358300000002,1.2969306999999999,0.8236595,0.2033262
11886,12:35:38.312000,1.2904191999999999,-4.6900395999999995,9.3728971,1.3592389,0.8309898000000001,0.1825568
11887,12:35:38.318000,1.2856309,-4.8576264,9.542878199999999,1.3457998,0.8346549999999999,0.18500020000000003
11888,12:35:38.328000,0.7325941999999999,-5.0730948,8.216547,1.3457998,0.8346549999999999,0.18500020000000003
11889,12:35:38.338000,0.2561686,-4.1202440000000005,9.0592699,1.2602788,0.8163291,0.2619692
11890,12:35:38.348000,0.8211759,-1.8889439,9.9929676,1.3971125,0.8505375,0.1666743
11891,12:35:38.360000,0.751747,-1.9775256,9.171792,1.3971125,0.8505375,0.1666743
11892,12:35:38.366000,-0.3710853,-2.0325898999999996,8.556509,1.1478796999999998,0.9177327,0.1031444
11893,12:35:38.377000,-1.6423517,-2.082866,7.9986839000000005,1.0916801999999999,0.9275065,-0.0153634
11894,12:35:38.386000,-2.5592916,-1.8219091,7.946013499999999,1.0916801999999999,0.9275065,-0.0153634
11895,12:35:38.396000,-2.6789966,-1.7357216,8.6666374,0.9499595,0.5878656999999999,-0.3708867
11896,12:35:38.410000,-1.8745793999999998,-1.9128848000000003,9.346562400000002,0.7508176999999999,0.2922072,-0.5578113
11897,12:35:38.415000,-1.1539556,-2.5257742000000003,9.8876276,0.7508176999999999,0.2922072,-0.5578113
11898,12:35:38.427000,-0.0933698,-3.4666550000000003,10.131826400000001,0.0605405,-0.1121853,-0.7178578
11899,12:35:38.435000,0.7876585,-4.6493402,10.093520199999999,0.0605405,-0.1121853,-0.7178578
11900,12:35:38.445000,1.4532180000000001,-5.4369984,9.7511644,-0.2253442,-0.1488372,-0.7923833
11901,12:35:38.455000,2.0876541,-5.633314599999999,9.4662657,-0.2253442,-0.1488372,-0.7923833
11902,12:35:38.465000,2.3174875,-5.0778837,9.3321972,-0.1740316,-0.0596509,-0.7508445
11903,12:35:38.478000,2.2911525,-4.374018700000001,9.0281458,0.1876003,0.20302089999999998,-0.5895762
11904,12:35:38.484000,2.0541368,-3.7084589,8.841406800000001,0.1876003,0.20302089999999998,-0.5895762
11905,12:35:38.497000,2.0014665000000003,-3.3397677000000003,8.7480373,0.4160638,0.3288591,-0.47473370000000004
11906,12:35:38.502000,1.9607668999999999,-3.2009101,8.7336721,0.4380549,0.3215287,-0.468625
11907,12:35:38.511000,1.6974159,-3.0620522,8.9036531,0.40995509999999996,0.283655,-0.4564077
11908,12:35:38.521000,1.5801051000000002,-3.1649985000000003,9.2172804,0.40995509999999996,0.283655,-0.4564077
11909,12:35:38.530000,1.6567163,-3.1290869999999997,9.5141478,0.3354296,0.1724777,-0.3708867
11910,12:35:38.540000,1.7500861,-2.8753126,9.8445339,0.3354296,0.1724777,-0.3708867
11911,12:35:38.551000,1.7979681,-2.7005434,9.782286599999999,0.35253379999999995,0.15292999999999998,-0.3403434
11912,12:35:38.561000,1.6830512999999998,-2.3797342999999995,10.071972800000001,0.40751170000000003,0.1993557,-0.30124809999999996
11913,12:35:38.571000,1.6303812,-2.3198817000000003,10.1078854,0.40751170000000003,0.1993557,-0.30124809999999996
11914,12:35:38.581000,1.6064403,-2.3198817000000003,10.3903894,0.38063359999999996,0.25066839999999996,-0.3721084
11915,12:35:38.592000,1.3406953000000001,-2.6215382000000003,10.074367500000001,0.3097733,0.3117548,-0.40020809999999996
11916,12:35:38.600000,1.2640841,-2.9806529999999998,9.8565054,0.3097733,0.3117548,-0.40020809999999996
11917,12:35:38.619000,1.4963118,-3.9909625,9.4183836,0.2511303,0.3484067,-0.4246427
11918,12:35:38.629000,1.3646363000000001,-4.3261366,9.068845699999999,0.23891300000000001,0.3728413,-0.423421
11919,12:35:38.640000,0.9121516,-4.295013,8.9874468,0.4637112,0.46691450000000007,-0.4246427
11920,12:35:38.648000,0.7014709,-3.8951987999999997,8.9874468,0.4637112,0.46691450000000007,-0.4246427
11921,12:35:38.663000,0.5219135,-3.7084589,8.7456427,0.6628531,0.45958409999999994,-0.30857840000000003
11922,12:35:38.668000,0.49557840000000003,-3.6605771000000003,8.4368038,0.6628531,0.45958409999999994,-0.30857840000000003
11923,12:35:38.677000,0.435726,-3.1985159,8.5924196,0.7056136,0.405828,-0.22672260000000002
11924,12:35:38.692000,0.459667,-2.6646321,8.7097311,0.8876513,0.36184570000000005,-0.15586229999999998
11925,12:35:38.697000,0.5602191,-2.5473211,9.0975752,0.9511813,0.3520719,-0.1412015
11926,12:35:38.712000,0.49557840000000003,-2.4012811000000003,9.0544806,1.0012722,0.3655109,-0.13875810000000002
11927,12:35:38.716000,0.6033128000000001,-2.1929946,9.200521499999999,1.0599152,0.38383690000000004,-0.1216538
11928,12:35:38.727000,0.6464066999999999,-1.9703432,9.195733099999998,1.1246668,0.42293220000000004,-0.1131017
11929,12:35:38.735000,0.6224656999999999,-1.6782633000000002,9.3058624,1.1246668,0.42293220000000004,-0.1131017
11930,12:35:38.745000,0.4788198,-1.1252263999999998,9.181368800000001,1.2260703000000002,0.5231140000000001,-0.0825585
11931,12:35:38.757000,0.35911479999999996,-0.8906046999999999,9.1215162,1.1979705,0.5402182,-0.05690219999999999
11932,12:35:38.765000,0.2465922,-0.5027608,9.0281458,1.1979705,0.5402182,-0.05690219999999999
11933,12:35:38.774000,0.2154689,-0.5027608,9.0568762,1.0379241,0.514562,-0.027580700000000003
11934,12:35:38.784000,0.2154689,-0.5793719,8.946746800000001,1.0379241,0.514562,-0.027580700000000003
11935,12:35:38.793000,0.09097569999999999,-0.7445647,8.72649,0.9218597,0.4999012,-0.0324676
11936,12:35:38.803000,-0.193922,-0.9480630999999999,8.4870796,0.8106824,0.4876839,-0.030024099999999998
11937,12:35:38.813000,-0.1963161,-1.309572,8.5086269,0.7105005999999999,0.48401869999999997,-0.0055896
11938,12:35:38.823000,-0.2394099,-1.0629798000000001,8.187817599999999,0.6530793,0.4730231,0.0041843
11939,12:35:38.833000,-0.1604046,-1.9176731,8.700155300000002,0.6518575,0.4437016,-0.0031460999999999998
11940,12:35:38.844000,-0.42136140000000005,-1.0893148000000001,8.4200449,0.6836225,0.4253757000000001,0.0005191
11941,12:35:38.858000,-0.023941,-1.6327753999999999,8.649879499999999,0.6836225,0.4253757000000001,0.0005191
11942,12:35:38.862000,-0.2585627,-1.2784487,8.640301699999998,0.7972434,0.4449233,0.0041843
11943,12:35:38.873000,-0.28010959999999996,-0.8546931999999999,8.5948153,0.8436690999999998,0.48401869999999997,0.0518317
11944,12:35:38.880000,-0.3447502,-0.5362781,8.5253859,0.8436690999999998,0.48401869999999997,0.0518317
11945,12:35:38.891000,-0.1915279,-0.36629709999999993,8.6091785,0.9352988000000001,0.5035664000000001,0.0701577
11946,12:35:38.900000,-0.023941,-0.0167587,8.6570606,0.9352988000000001,0.5035664000000001,0.0701577
11947,12:35:38.909000,0.0263351,0.17955739999999998,8.72649,0.9524029,0.4999012,0.0860402
11948,12:35:38.922000,0.07661119999999999,0.2753213,8.7624006,0.9524029,0.4999012,0.0860402
11949,12:35:38.929000,0.3208092,0.48600200000000005,8.9036531,0.9279684000000001,0.4950143,0.1153617
11950,12:35:38.940000,0.6009188,0.5937365,9.042511,0.8717688,0.4608058,0.16789600000000002
11951,12:35:38.949000,0.5841601,0.5961305,9.0951815,0.8717688,0.4608058,0.16789600000000002
11952,12:35:38.959000,0.3447502,0.6918946,9.1765804,0.771587,0.45958409999999994,0.2656344
11953,12:35:38.968000,0.2058925,0.6320420999999999,9.1191216,0.771587,0.45958409999999994,0.2656344
11954,12:35:38.978000,0.1436459,0.751747,9.188550900000001,0.7031702,0.4265974,0.3340513
11955,12:35:38.992000,-0.0622466,0.8427228000000001,9.2675562,0.5956579000000001,0.31542,0.47699359999999996
11956,12:35:38.996000,-0.27053309999999997,0.9025753000000001,9.2651625,0.5956579000000001,0.31542,0.47699359999999996
11957,12:35:39.009000,-0.36869120000000005,1.1731083,9.3728971,0.5003631,0.1993557,0.6370401
11958,12:35:39.015000,-0.339962,1.1802906000000002,9.253191900000001,0.5003631,0.1993557,0.6370401
11959,12:35:39.025000,-0.316021,1.2856309,9.298680300000001,0.48570230000000003,0.1504866,0.6712486
11960,12:35:39.037000,-0.4500906,0.9600335999999999,8.8629541,0.5260194,0.05396990000000001,0.7360002
11961,12:35:39.045000,-0.40220859999999997,1.4125183000000001,9.7798929,0.5260194,0.05396990000000001,0.7360002
11962,12:35:39.056000,-0.6248598000000001,1.0079155999999998,9.5644236,0.6200926,0.080848,0.7433306
11963,12:35:39.065000,-0.8738461,0.32320340000000003,9.1622162,0.6200926,0.080848,0.7433306
11964,12:35:39.075000,-0.8882107,0.7206236999999999,9.147851,0.6017666,0.1553735,0.6443705
11965,12:35:39.084000,-1.0893148000000001,0.49797250000000004,8.839013099999999,0.6017666,0.1553735,0.6443705
11966,12:35:39.094000,-1.2042316000000002,0.36390300000000003,8.556509,0.6714051999999999,0.1956905,0.6626964
11967,12:35:39.104000,-1.0629798000000001,0.44051409999999996,8.5373564,0.8436690999999998,0.34718499999999997,0.5576277
11968,12:35:39.112000,-0.533884,0.82357,8.7408552,0.8436690999999998,0.34718499999999997,0.5576277
11969,12:35:39.123000,-0.3184151,1.4412475,8.7145185,1.2346225,0.5426616999999999,0.41835059999999996
11970,12:35:39.132000,-0.3279915,1.7692389,8.7480373,1.2346225,0.5426616999999999,0.41835059999999996
11971,12:35:39.141000,-0.6128892,1.8889439,8.520597500000001,1.3274739,0.7246994000000001,0.3694814
11972,12:35:39.155000,-0.9696100000000001,2.0804718,8.4344101,1.3506868,0.9275065,0.3316078
11973,12:35:39.162000,-1.26169,2.1092009999999997,8.101630199999999,1.3629041000000002,1.1180964,0.30106459999999996
11974,12:35:39.174000,-1.601652,1.9727374,7.687450900000001,1.3616823,1.2903601999999998,0.2619692
11975,12:35:39.191000,-2.5018332,2.2289058999999996,6.966827400000001,1.3421346,1.4345243,0.21432179999999998
11976,12:35:39.203000,-2.7173021,2.3510051,6.6675649,1.511955,1.792491,0.1947741
11977,12:35:39.211000,-2.7963072999999996,2.327064,6.277327099999999,1.511955,1.792491,0.1947741
11978,12:35:39.221000,-3.0333229999999998,2.4802864,5.796113,1.737975,1.9317679,0.1336876
11979,12:35:39.230000,-3.3230089999999994,2.5999912999999997,5.6572556,1.737975,1.9317679,0.1336876
11980,12:35:39.240000,-3.6964886,2.8465835999999998,6.3180265,1.8662566000000003,1.9281026999999997,0.1385745
11981,12:35:39.252000,-4.0388446,3.4235613,6.782482099999999,1.9713253000000002,1.8609078000000001,0.15079179999999998
11982,12:35:39.259000,-4.0220861,4.0196919,7.3834004,2.0250814,1.7375131000000001,0.2192087
11983,12:35:39.271000,-4.060391399999999,4.6086402,7.608446099999999,1.9456688999999998,1.4210851,0.3316078
11984,12:35:39.279000,-4.213614,5.209559,8.290763900000002,1.9456688999999998,1.4210851,0.3316078
11985,12:35:39.289000,-4.508088099999999,5.834418299999999,8.7312784,1.6756668000000001,1.1877348,0.44400690000000004
11986,12:35:39.297000,-4.9318433,6.6244712,8.7719784,1.6756668000000001,1.1877348,0.44400690000000004
11987,12:35:39.306000,-5.2502584,7.3762178,8.7288837,1.5021811999999999,1.0692270000000001,0.4904326
11988,12:35:39.320000,-5.2718053,8.0896597,8.520597500000001,1.1148930000000001,0.7784555000000001,0.5441887
11989,12:35:39.326000,-5.451363099999999,8.479898500000001,8.319493300000001,1.1148930000000001,0.7784555000000001,0.5441887
11990,12:35:39.335000,-5.48488,8.2261238,7.967560300000001,0.5626713000000001,0.5170054000000001,0.5283062
11991,12:35:39.346000,-5.3412347,7.606051400000001,7.7329387999999994,0.5626713000000001,0.5170054000000001,0.5283062
11992,12:35:39.355000,-5.14013,6.8997927,7.3857946,0.3500904,0.4449233,0.4159071
11993,12:35:39.369000,-4.7977738,6.171986599999999,7.1200494999999995,0.1949307,0.3899455,0.32672090000000004
11994,12:35:39.375000,-4.4434476,5.5207915000000005,6.7489643,-0.000546,0.29587240000000004,0.2094348
11995,12:35:39.386000,-4.2495255,4.9605727,6.399426,-0.055523800000000005,0.26777259999999997,0.1886654
11996,12:35:39.393000,-4.1058793,4.575122400000001,6.1552280999999995,-0.055523800000000005,0.26777259999999997,0.1886654
11997,12:35:39.403000,-4.0891209,4.5631518,6.1504392999999995,-0.07751489999999998,0.24455970000000002,0.1947741
11998,12:35:39.413000,-4.0508150999999994,4.9055085,6.1456513,-0.0579673,0.21279479999999998,0.20821309999999998
11999,12:35:39.422000,-3.9622335,5.1928,6.2270508,-0.0213154,0.15781689999999998,0.2228739
12000,12:35:39.441000,-3.8161936,5.381934200000001,6.2964797,0.0018975,0.0368657,0.2167652
12001,12:35:39.445000,-3.7994347,5.5902205,6.3443613,0.0018975,0.0368657,0.2167652
12002,12:35:39.456000,-3.7515528,5.7338667,6.437731299999999,-0.018871900000000004,-0.0266642,0.1923306
12003,12:35:39.462000,-3.7300057,5.8128719,6.5047665,-0.018871900000000004,-0.0266642,0.1923306
12004,12:35:39.473000,-3.9023809000000003,5.927788700000001,6.696293799999999,-0.0885105,-0.0388815,0.1569005
12005,12:35:39.487000,-4.0675735,5.9469414,6.8423338000000005,-0.1251624,-0.0315511,0.1446832
12006,12:35:39.490000,-4.271071900000001,6.0738287,6.8926105,-0.1251624,-0.0315511,0.1446832
12007,12:35:39.504000,-3.9622335,5.944547200000001,6.823181599999999,-0.14226660000000002,-0.0315511,0.11413989999999999
12008,12:35:39.510000,-3.6294537000000004,5.736260400000001,6.8973985,-0.12882760000000001,-0.0376598,-0.0068113
12009,12:35:39.519000,-3.7970405,5.602191,6.8878222000000004,-0.12882760000000001,-0.0376598,-0.0068113
12010,12:35:39.529000,-3.7730997000000004,5.3891163,7.0338621,-0.1190538,0.0197615,-0.0288024
12011,12:35:39.538000,-3.7395822999999995,5.2598348,7.1272321,-0.06163250000000001,0.139491,-0.1094366
12012,12:35:39.550000,-3.7587349000000003,5.0730948,7.196661,-0.04575,0.184695,-0.1350929
12013,12:35:39.558000,-3.8521049,4.8815675,7.203843099999999,-0.04575,0.184695,-0.1350929
12014,12:35:39.568000,-4.0771503,4.8552327,7.1128674,-0.032311,0.2323424,-0.157084
12015,12:35:39.580000,-4.2974076,4.948602200000001,7.1224441999999994,-0.000546,0.26899429999999996,-0.1680796
12016,12:35:39.588000,-4.2686782,4.948602200000001,7.2349663,0.043436300000000004,0.2494466,-0.1680796
12017,12:35:39.600000,-4.3812003,5.1832242,7.2110256999999995,0.0471015,0.2054644,-0.1693013
12018,12:35:39.607000,-4.436265000000001,5.4010868,7.2996068,0.0471015,0.2054644,-0.1693013
12019,12:35:39.618000,-4.476964499999999,5.5782499,7.3594593999999995,-0.011541599999999999,0.0967304,-0.1668578
12020,12:35:39.627000,-4.4386592,5.8152661,7.2684841,-0.0799584,0.0332005,-0.1778534
12021,12:35:39.636000,-4.4697824,5.8583593,7.1439905,-0.0799584,0.0332005,-0.1778534
12022,12:35:39.647000,-4.6230044,5.8990593,6.9500684999999995,-0.1740316,-0.03277290000000001,-0.1912924
12023,12:35:39.655000,-4.7546802,5.7625957,6.782482099999999,-0.2815438,-0.09630280000000001,-0.20228800000000002
12024,12:35:39.666000,-4.8672032,5.6093736,6.6484122,-0.49045950000000005,-0.2661232,-0.2279443
12025,12:35:39.675000,-4.8312917,5.597403,6.8303633,-0.49045950000000005,-0.2661232,-0.2279443
12026,12:35:39.685000,-4.4626002,5.209559,6.861486900000001,-0.5674285,-0.3589746,-0.2426051
12027,12:35:39.695000,-4.374018700000001,5.144918,6.7226295,-0.6517278000000001,-0.4579347,-0.2572658
12028,12:35:39.705000,-4.5535760000000005,5.513609400000001,6.9021864,-0.7494662,-0.5361254,-0.25604410000000005
12029,12:35:39.716000,-4.508088099999999,5.4010868,7.0506210000000005,-0.8704174000000001,-0.6106509,-0.24749200000000002
12030,12:35:39.725000,-4.242342900000001,5.2119532,7.2613015,-0.8704174000000001,-0.6106509,-0.24749200000000002
12031,12:35:39.734000,-4.0029330000000005,5.1209769,7.270877799999999,-1.0072510000000001,-0.7242717,-0.2865873
12032,12:35:39.744000,-3.8688636,4.927054900000001,7.273272,-1.0072510000000001,-0.7242717,-0.2865873
12033,12:35:39.762000,-3.8305580999999997,3.9694157,7.2445431,-1.0573419,-0.7352673000000001,-0.32568270000000005
12034,12:35:39.772000,-3.6725476,3.5097487000000003,7.3067894,-1.1282023,-0.7487063,-0.4197558
12035,12:35:39.781000,-3.6414242,2.9926236,7.1559610000000005,-1.1318675,-0.7633671,-0.49305959999999993
12036,12:35:39.792000,-3.6749415,2.7388489,7.048226400000001,-1.1318675,-0.7633671,-0.49305959999999993
12037,12:35:39.802000,-3.6940942000000003,2.7101197,6.940492599999999,-1.0817766000000002,-0.7658105,-0.5174942
12038,12:35:39.814000,-3.6917002,2.6957552000000002,6.8950043,-1.0548985,-0.7878016999999999,-0.532155
12039,12:35:39.820000,-3.5193252999999998,2.7651839,6.8950043,-1.0548985,-0.7878016999999999,-0.532155
12040,12:35:39.830000,-3.5121427000000005,2.6526616,7.1056852,-1.0463464,-0.8256752,-0.5565895000000001
12041,12:35:39.840000,-3.3708911,2.66942,7.419312,-1.0671158,-0.8745444,-0.5798024
12042,12:35:39.849000,-3.0548699,2.6550555,7.421706200000001,-1.115985,-0.9673959000000001,-0.6115674
12043,12:35:39.859000,-2.8824949,2.6359026,7.498317699999999,-1.115985,-0.9673959000000001,-0.6115674
12044,12:35:39.869000,-2.5856267999999996,2.4778922000000003,7.479164599999999,-1.1514151000000001,-1.0003826999999998,-0.6335585
12045,12:35:39.880000,-2.4587395,2.2576351000000003,7.5988693,-1.1721846000000002,-1.0260389,-0.6616583
12046,12:35:39.889000,-2.2767880000000003,2.2648175,7.756879799999999,-1.1721846000000002,-1.0260389,-0.6616583
12047,12:35:39.898000,-2.183418,2.2576351000000003,7.8837671,-1.1123198,-1.0150433,-0.6286716
12048,12:35:39.907000,-2.0158311999999996,2.4778922000000003,8.1231766,-1.1123198,-1.0150433,-0.6286716
12049,12:35:39.918000,-2.1546887999999997,2.7364547000000004,8.221335400000001,-1.0683376,-1.0101564,-0.5969066
12050,12:35:39.931000,-2.2169354,3.0189586,8.348222699999999,-1.0671158,-1.021152,-0.5162725
12051,12:35:39.936000,-2.1546887999999997,3.1649985000000003,8.4607449,-1.0671158,-1.021152,-0.5162725
12052,12:35:39.947000,-2.0325898999999996,3.4307434999999997,8.6283321,-1.129424,-1.0553603999999999,-0.49550299999999997
12053,12:35:39.956000,-1.8243033,3.4068023999999997,8.659455300000001,-1.2247188999999998,-1.1030078,-0.47717709999999997
12054,12:35:39.966000,-1.64714,3.1314812,8.518202800000001,-1.5606946000000002,-1.220294,-0.4539643
12055,12:35:39.978000,-1.6184107,2.8465835999999998,8.5014448,-1.7439539000000002,-1.2593892,-0.4466339
12056,12:35:39.984000,-1.6926279,2.592809,8.3434343,-1.7439539000000002,-1.2593892,-0.4466339
12057,12:35:39.996000,-1.6974159,2.2576351000000003,8.2716112,-2.0640471000000002,-1.3253627000000001,-0.4649598
12058,12:35:40.005000,-1.3813950000000002,1.9176731,8.230911299999999,-2.0640471000000002,-1.3253627000000001,-0.4649598
12059,12:35:40.016000,-1.1060736,1.7764213,8.398497599999999,-2.3829184,-1.4585311,-0.5064986
12060,12:35:40.025000,-0.8522992,1.9918901000000002,8.3506165,-2.3829184,-1.4585311,-0.5064986
12061,12:35:40.034000,-0.6655594,1.5106763,8.3793459,-2.5564041,-1.4939613,-0.5174942
12062,12:35:40.047000,-0.7086533,1.0893148000000001,8.391316400000001,-3.0414307000000003,-1.5501608999999998,-0.5064986
12063,12:35:40.052000,-0.8690578999999999,0.9552454,8.558902699999999,-3.0414307000000003,-1.5501608999999998,-0.5064986
12064,12:35:40.063000,-0.82357,0.5841601,8.6666374,-3.4177232,-1.6026951999999999,-0.5260463000000001
12065,12:35:40.072000,-0.8163876999999999,0.193922,8.6450911,-3.4177232,-1.6026951999999999,-0.5260463000000001
12066,12:35:40.081000,-0.4548787,-0.7804762,8.429621699999998,-3.8074551,-1.6882162,-0.585911
12067,12:35:40.093000,-0.2992623,-2.1690536,7.9795308,-3.8074551,-1.6882162,-0.585911
12068,12:35:40.102000,-0.6751359,-3.5217192,7.981925,-3.9516188999999997,-1.7004335,-0.6201194999999999
12069,12:35:40.112000,-0.9696100000000001,-4.5966697,8.4152575,-3.7879074,-1.5965865,-0.5871328
12070,12:35:40.122000,-0.9145458000000001,-4.8312917,8.776765800000002,-3.7879074,-1.5965865,-0.5871328
12071,12:35:40.132000,-0.10773440000000001,-5.2071648,9.0999689,-3.4934703999999996,-1.8482628,-0.48817269999999996
12072,12:35:40.141000,0.751747,-5.5183973,9.5668192,-3.4934703999999996,-1.8482628,-0.48817269999999996
12073,12:35:40.150000,1.5801051000000002,-5.530367900000001,9.813410800000002,-3.3163197,-2.1463647,-0.423421
12074,12:35:40.160000,2.1810241,-5.7625957,9.631459199999998,-3.2796678999999997,-2.2331076000000003,-0.4270862
12075,12:35:40.168000,3.2248509,-5.6716199000000005,9.420779199999998,-3.2796678999999997,-2.2331076000000003,-0.4270862
12076,12:35:40.178000,4.3428949999999995,-5.796113,9.080817199999998,-3.2955502999999995,-2.2795334,-0.5370418
12077,12:35:40.188000,5.2933525999999995,-6.200716000000001,8.6570606,-3.2955502999999995,-2.2795334,-0.5370418
12078,12:35:40.199000,6.2988739,-6.686717999999999,8.1471176,-3.5570004,-2.0058658,-0.6250064000000001
12079,12:35:40.211000,7.239754700000001,-7.550987700000001,7.115261599999999,-3.7524772000000004,-1.7993936999999998,-0.6494409999999999
12080,12:35:40.217000,7.6371750999999986,-8.599602699999998,5.7242899000000005,-3.7524772000000004,-1.7993936999999998,-0.6494409999999999
12081,12:35:40.237000,7.055409,-9.909174900000002,3.296674,-3.9039714,-1.5501608999999998,-0.6225629
12082,12:35:40.246000,7.148778900000001,-10.3161716,2.5497153,-3.410393,-0.7890234,-0.4466339
12083,12:35:40.258000,6.6125007,-9.5045719,2.1283537999999997,-3.410393,-0.7890234,-0.4466339
12084,12:35:40.273000,5.8966651,-9.064058300000001,1.1515615,-2.4745481,-0.4982518,-0.1546405
12085,12:35:40.278000,5.530367900000001,-9.0712404,0.36390300000000003,-2.4745481,-0.4982518,-0.1546405
12086,12:35:40.286000,5.381934200000001,-8.649879499999999,0.9552454,-1.7109671999999998,-0.5043604,0.1520135
12087,12:35:40.296000,5.4441805,-8.783947900000001,1.7524803,-1.3664396,-0.5324601999999999,0.226539
12088,12:35:40.306000,5.2311058,-8.8629541,2.0948365,-1.1184285,-0.5715555999999999,0.2815169
12089,12:35:40.313000,5.310111,-9.2100983,2.8824949,-1.0316857,-0.619203,0.38902909999999996
12090,12:35:40.326000,5.889483,-9.6841288,3.8999867,-0.9522732,-0.6790676999999999,0.44400690000000004
12091,12:35:40.333000,6.239021299999999,-10.8524504,4.6397634000000005,-0.9522732,-0.6790676999999999,0.44400690000000004
12092,12:35:40.342000,6.286903400000001,-12.0399227,5.142523799999999,-0.9217299999999999,-0.6790676999999999,0.7017918000000001
12093,12:35:40.353000,6.1480455,-12.1213217,5.0539427,-0.9217299999999999,-0.6790676999999999,0.7017918000000001
12094,12:35:40.362000,5.626132,-11.640108099999999,4.5176644,-0.8899651,-0.5862163,0.8874946
12095,12:35:40.376000,4.6684923,-10.8979368,3.9047748999999996,-0.6944883000000001,-0.42128279999999996,0.9571332
12096,12:35:40.382000,3.6773357000000004,-10.0145149,3.6174831,-0.18380539999999998,-0.036438099999999994,0.9400290000000001
12097,12:35:40.396000,2.8226426,-8.8821058,3.6390300000000004,0.0373276,0.1003956,0.8435123999999999
12098,12:35:40.402000,2.3103054,-7.819126600000001,3.6533947,0.0373276,0.1003956,0.8435123999999999
12099,12:35:40.412000,2.3797342999999995,-7.13202,3.6773357000000004,0.0886403,0.1688125,0.6859093
12100,12:35:40.421000,2.8609481,-6.8638811,3.3756793,0.0886403,0.1688125,0.6859093
12101,12:35:40.430000,2.8992536,-7.347488900000001,2.4611335,-0.0640759,0.1468213,0.5857275
12102,12:35:40.442000,2.7532134,-8.7647963,1.601652,-0.37561690000000003,0.1602604,0.4806588
12103,12:35:40.449000,2.353399,-9.6961002,1.3981537,-0.7054838999999999,0.22012510000000002,0.3816987
12104,12:35:40.459000,2.327064,-10.3257484,2.1139894,-0.772679,0.2824333,0.2888472
12105,12:35:40.469000,2.3988869,-11.096648199999999,2.4108574000000003,-0.5784239999999999,0.31542,0.2424215
12106,12:35:40.480000,2.1642652,-11.151712400000001,3.1626046000000003,-0.25955259999999997,0.3276373,0.20699139999999996
12107,12:35:40.492000,2.3150935,-11.0511599,3.5241132000000004,0.1155183,0.3667327,0.22531729999999997
12108,12:35:40.499000,1.9583727,-10.4310884,4.6684923,0.46859809999999996,0.4070497,0.2644127
12109,12:35:40.510000,2.0421662,-10.2826538,4.8959322,0.9585116,0.45836229999999994,0.38902909999999996
12110,12:35:40.518000,1.8482443,-9.049693099999999,5.2598348,0.9585116,0.45836229999999994,0.38902909999999996
12111,12:35:40.527000,1.3718187,-7.8550382,5.688378299999999,1.1381059,0.4815753,0.4721067
12112,12:35:40.538000,1.0055215,-6.8255754,6.1624098,1.3042610000000001,0.5182270999999999,0.5258628000000001
12113,12:35:40.547000,0.8331464,-5.9756703,6.679535400000001,1.3445781,0.514562,0.5173106
12114,12:35:40.558000,0.5482486,-5.4489684,7.0865326,1.1112278,0.3850586,0.42568100000000003
12115,12:35:40.567000,0.36869120000000005,-5.2598348,7.395371000000001,0.8864295,0.3178635,0.35970759999999996
12116,12:35:40.577000,0.059852499999999996,-5.302928400000001,7.550987700000001,0.6237577,0.24822489999999997,0.29739940000000004
12117,12:35:40.586000,0.0694289,-5.6357083,7.452829400000001,0.6237577,0.24822489999999997,0.29739940000000004
12118,12:35:40.595000,-0.0861876,-5.688378299999999,7.1176553,0.374525,0.1712559,0.2399781
12119,12:35:40.609000,0.0670348,-5.764989900000001,6.6125007,-0.004211199999999999,0.060078599999999996,0.12391379999999999
12120,12:35:40.614000,0.7397765000000001,-6.2318392,5.7099257,-0.004211199999999999,0.060078599999999996,0.12391379999999999
12121,12:35:40.627000,1.065374,-7.141596300000001,4.879172799999999,-0.43059480000000006,-0.0315511,-0.07644989999999999
12122,12:35:40.634000,0.9935510000000001,-8.099235499999999,4.2447371,-0.43059480000000006,-0.0315511,-0.07644989999999999
12123,12:35:40.643000,1.1515615,-8.597209,4.1609435,-0.5417721,-0.0291077,-0.1680796
12124,12:35:40.656000,1.7357216,-8.8366184,4.634975,-0.32063909999999995,-0.1683848,-0.28780900000000004
12125,12:35:40.663000,2.497045,-8.7408552,5.4609389,-0.1105016,-0.2563494,-0.292696
12126,12:35:40.675000,2.7795486,-8.175847099999999,6.0091882000000005,0.0532101,-0.2856709,-0.2487137
12127,12:35:40.682000,2.8681302000000004,-8.010654400000002,6.2581739,0.0532101,-0.2856709,-0.2487137
12128,12:35:40.691000,2.9758646,-8.020231200000001,6.1791692000000005,0.1020793,-0.2587928,-0.170523
12129,12:35:40.701000,2.9591060000000002,-8.156694400000001,5.688378299999999,0.0471015,-0.20503670000000002,-0.0959975
12130,12:35:40.711000,2.6861787,-8.467927,4.898325900000001,-0.06285419999999999,-0.131733,-0.0349111
12131,12:35:40.722000,2.3390346,-8.6474848,4.2303724,-0.1752533,-0.0474336,0.0029625999999999997
12132,12:35:40.732000,2.1427186000000003,-8.611573199999999,4.0412387999999995,-0.20824,0.0099877,0.0225102
12133,12:35:40.741000,2.1522946,-8.269216499999999,4.383595,-0.1324928,0.014874600000000002,0.0212885
12134,12:35:40.751000,2.4922566,-8.0752954,4.946208,0.0067843999999999995,-0.016890400000000003,0.0164016
12135,12:35:40.761000,2.7580017999999997,-7.634780900000001,5.235894200000001,0.1362877,-0.0743117,0.0041843
12136,12:35:40.772000,2.8705244,-7.4288883000000006,5.3196874,0.2010394,-0.11585050000000001,0.0176233
12137,12:35:40.780000,2.8609481,-7.5533814,5.257441,0.2010394,-0.11585050000000001,0.0176233
12138,12:35:40.789000,2.7484252000000002,-7.9699545,5.116189,0.12651389999999998,-0.0755334,0.029840600000000002
12139,12:35:40.800000,2.5425327,-8.3410397,5.08746,0.0483232,-0.019333799999999998,0.0273971
12140,12:35:40.809000,2.3581872,-8.3745575,5.164071099999999,0.0752012,0.0613003,0.0090712
12141,12:35:40.822000,2.252847,-8.2620354,5.2622290000000005,0.13506600000000002,0.0686307,0.0200668
12142,12:35:40.828000,2.2743938,-8.0561428,5.334052099999999,0.13506600000000002,0.0686307,0.0200668
12143,12:35:40.842000,2.1403244,-7.819126600000001,5.427422,0.2022611,0.0576351,0.064049
12144,12:35:40.848000,2.0493486,-7.788003,5.5423384,0.2022611,0.0576351,0.064049
12145,12:35:40.858000,2.0685015,-7.7736387,5.6189499000000005,0.2108132,0.04541780000000001,0.0750446
12146,12:35:40.877000,2.0637131,-7.6635098,5.848783,0.2108132,0.04541780000000001,0.0750446
12147,12:35:40.889000,2.0517426,-7.634780900000001,5.8870888,0.2376913,0.06252200000000001,0.0322841
12148,12:35:40.896000,2.0637131,-7.6204165999999995,5.944547200000001,0.2376913,0.06252200000000001,0.0322841
12149,12:35:40.907000,2.0613191000000004,-7.6228104000000005,5.8775125,0.2230305,0.0735176,0.0273971
12150,12:35:40.915000,1.9320377,-7.6204165999999995,5.7530193,0.2034828,0.0832914,0.029840600000000002
12151,12:35:40.925000,1.8961263,-7.594080900000001,5.7697778,0.18515689999999999,0.0955087,0.038392699999999995
12152,12:35:40.935000,1.8195150000000002,-7.565352000000001,5.736260400000001,0.1729396,0.1003956,0.0469448
12153,12:35:40.944000,1.7500861,-7.539017200000001,5.776960400000001,0.1729396,0.0967304,0.053053499999999996
12154,12:35:40.955000,1.8003622,-7.479164599999999,5.719501999999999,0.1741613,0.0759611,0.0579404
12155,12:35:40.963000,1.79318,-7.5557756,5.7338667,0.1741613,0.0759611,0.0579404
12156,12:35:40.973000,1.8075444999999999,-7.4815583,5.8200541,0.15827879999999997,0.060078599999999996,0.053053499999999996
12157,12:35:40.983000,1.8099386999999998,-7.402553599999999,5.9038477,0.1448398,0.049083,0.05061
12158,12:35:40.993000,1.8985202,-7.357065700000001,5.8392072,0.09352719999999999,0.025870099999999997,0.0432796
12159,12:35:41.005000,1.8865498,-7.290030499999999,5.906241400000001,0.076423,0.0246484,0.0469448
12160,12:35:41.013000,1.8602147,-7.3115773,5.8846945999999996,0.076423,0.0246484,0.0469448
12161,12:35:41.022000,1.7668449000000002,-7.3067894,5.9541235,0.0800882,0.0466395,0.0481665
12162,12:35:41.032000,1.6567163,-7.2804546000000006,6.035522900000001,0.0800882,0.0466395,0.0481665
12163,12:35:41.041000,1.575317,-7.3450952,5.9613061,0.0874185,0.0796262,0.037170999999999996
12164,12:35:41.055000,1.5106763,-7.3307304,5.843995099999999,0.0837533,0.0820697,0.0273971
12165,12:35:41.061000,1.4795530000000001,-7.3642473,5.843995099999999,0.0837533,0.0820697,0.0273971
12166,12:35:41.072000,1.5465877000000001,-7.390583,5.736260400000001,0.051988400000000004,0.0405309,0.0066277
12167,12:35:41.080000,1.673475,-7.3714299,5.772172,0.051988400000000004,0.0405309,0.0066277
12168,12:35:41.091000,1.6710808000000001,-7.2876363,5.8799067,0.010449600000000002,-0.0217773,-0.030024099999999998
12169,12:35:41.100000,1.745298,-7.388188400000001,5.891877200000001,0.010449600000000002,-0.0217773,-0.030024099999999998
12170,12:35:41.109000,1.8290915,-7.6778746,5.855965599999999,-0.1153885,-0.048655300000000005,-0.04101969999999999
12171,12:35:41.122000,1.8697912,-7.8143387,5.7099257,-0.1605926,-0.0474336,-0.0495718
12172,12:35:41.129000,1.9033084999999998,-7.9555898,5.5255799,-0.1605926,-0.0474336,-0.0495718
12173,12:35:41.139000,1.9128848000000003,-8.0034723,5.365175700000001,-0.1459318,-0.0217773,-0.0483501
12174,12:35:41.148000,2.0062547,-7.9196786999999995,5.3723574,-0.1459318,-0.0217773,-0.0483501
12175,12:35:41.158000,1.9847078000000002,-7.9124966,5.422633599999999,-0.1019495,-0.016890400000000003,-0.047128300000000005
12176,12:35:41.170000,1.9272496,-7.8861612999999995,5.4202394,-0.0335327,0.0112094,-0.0373545
12177,12:35:41.177000,1.9009144,-7.831097099999999,5.4920626,-0.0335327,0.0112094,-0.0373545
12178,12:35:41.186000,1.8530324,-7.8334908,5.5447326,-0.0176502,0.0209832,-0.033689300000000005
12179,12:35:41.196000,1.8243033,-7.8550382,5.4465747,-0.011541599999999999,0.025870099999999997,-0.0312459
12180,12:35:41.206000,1.7955738999999997,-7.797579300000001,5.310111,-0.0078764,0.0295353,-0.0288024
12181,12:35:41.220000,1.6710808000000001,-7.6371750999999986,5.5447326,0.044657999999999996,0.035644,-0.019028599999999996
12182,12:35:41.225000,1.8745793999999998,-7.708998200000001,5.6716199000000005,0.044657999999999996,0.035644,-0.019028599999999996
12183,12:35:41.238000,2.0134369999999997,-7.634780900000001,5.726684099999999,0.0605405,-0.0010079000000000002,-0.053237
12184,12:35:41.246000,2.0134369999999997,-7.5150762,5.6428905,0.0605405,-0.0010079000000000002,-0.053237
12185,12:35:41.257000,1.9104908,-7.452829400000001,5.5519152,0.0361059,0.0124311,-0.0483501
12186,12:35:41.265000,1.9057026000000001,-7.479164599999999,5.427422,0.0361059,0.0124311,-0.0483501
12187,12:35:41.274000,1.9392200000000002,-7.6730865999999995,5.4489684,0.015336500000000001,0.0112094,-0.0507935
12188,12:35:41.289000,1.9942843000000001,-7.701815600000001,5.4776978,-0.005432899999999999,-0.0010079000000000002,-0.0593456
12189,12:35:41.294000,2.0230136,-7.8143387,5.5543089000000005,0.0018975,-0.0058948,-0.0520153
12190,12:35:41.305000,2.0469543999999997,-7.7592740000000004,5.6644373,0.0190017,-0.009559999999999999,-0.03857619999999999
12191,12:35:41.312000,2.0445604,-7.649145599999999,5.7482309,0.0190017,-0.009559999999999999,-0.03857619999999999
12192,12:35:41.321000,2.1020187999999997,-7.5222583,5.8583593,0.039771100000000004,-0.0120035,-0.0202503
12193,12:35:41.334000,2.0804718,-7.390583,5.9541235,0.056875300000000004,-0.0107817,-0.0007026
12194,12:35:41.341000,2.1211715,-7.3331246,6.004399299999999,0.0605405,-0.0083383,0.0164016
12195,12:35:41.353000,2.1044127999999995,-7.2972131,5.9397588,0.051988400000000004,-0.0046731,0.0322841
12196,12:35:41.361000,2.1163833,-7.3259419999999995,6.006794,0.0373276,-0.0034514000000000003,0.0493883
12197,12:35:41.371000,2.0469543999999997,-7.3762178,6.1648045,0.0226669,-0.0022296,0.0616056
12198,12:35:41.385000,2.0134369999999997,-7.5461993000000005,6.1983213,0.0067843999999999995,0.0014356,0.06771419999999999
12199,12:35:41.403000,2.0182252,-7.7520914,6.0977697,-0.07751489999999998,-0.0046731,0.0835967
12200,12:35:41.409000,1.9368258999999999,-7.8550382,5.906241400000001,-0.07751489999999998,-0.0046731,0.0835967
12201,12:35:41.418000,1.9057026000000001,-7.905314,5.7482309,-0.09339739999999999,-0.0071166,0.0982574
12202,12:35:41.428000,1.9392200000000002,-7.8981318,5.626132,-0.08240189999999999,-0.016890400000000003,0.1251355
12203,12:35:41.439000,1.9248554,-7.9029198,5.5016389000000006,-0.0543021,-0.022999000000000002,0.13490929999999998
12204,12:35:41.452000,1.9033084999999998,-7.7903975999999995,5.513609400000001,-0.0164285,-0.0266642,0.1361311
12205,12:35:41.458000,1.9535846999999997,-7.7161802999999995,5.6237378,-0.0164285,-0.0266642,0.1361311
12206,12:35:41.471000,1.9296436000000001,-7.550987700000001,5.5471268,0.043436300000000004,-0.0388815,0.1324659
12207,12:35:41.478000,1.8386679,-7.464799900000001,5.5112157,0.043436300000000004,-0.0388815,0.1324659
12208,12:35:41.487000,1.8219091,-7.3810066999999995,5.530367900000001,0.054431799999999995,-0.0315511,0.1312442
12209,12:35:41.497000,1.7692389,-7.3786125,5.5902205,0.06298390000000001,-0.0242208,0.1214703
12210,12:35:41.506000,1.8099386999999998,-7.469587799999999,5.7099257,0.056875300000000004,-0.020555599999999997,0.0738229
12211,12:35:41.518000,1.8530324,-7.505499400000001,5.678801999999999,0.0483232,-0.009559999999999999,0.0457231
12212,12:35:41.525000,1.8386679,-7.6108398,5.7051377,0.0483232,-0.009559999999999999,0.0457231
12213,12:35:41.536000,1.8650029,-7.754486099999999,5.6979551,0.0226669,0.0136528,-0.0007026
12214,12:35:41.549000,1.9392200000000002,-7.893343400000001,5.7003489,0.021445099999999998,0.0197615,-0.012919899999999998
12215,12:35:41.554000,1.8985202,-7.9436197,5.6716199000000005,0.021445099999999998,0.0197615,-0.012919899999999998
12216,12:35:41.567000,1.817121,-7.9771371,5.6213441,0.0336624,0.0441961,-0.004367800000000001
12217,12:35:41.574000,1.8314854999999999,-7.9962902,5.4968505,0.0336624,0.0441961,-0.004367800000000001
12218,12:35:41.585000,1.8434560000000002,-8.005866099999999,5.5279741,0.061762199999999996,0.04541780000000001,0.0090712
12219,12:35:41.594000,1.8745793999999998,-8.022625,5.4920626,0.061762199999999996,0.04541780000000001,0.0090712
12220,12:35:41.603000,1.8721851999999999,-7.9316492,5.5016389000000006,0.12651389999999998,0.039309199999999996,0.0176233
12221,12:35:41.615000,1.8458501,-7.835885,5.5806441,0.15950060000000002,0.0429744,0.028618900000000003
12222,12:35:41.622000,1.7979681,-7.7281508,5.6572556,0.1863786,0.04541780000000001,0.034727499999999994
12223,12:35:41.633000,1.79318,-7.7209687,5.6668315,0.1863786,0.04541780000000001,0.034727499999999994
12224,12:35:41.641000,1.7165686999999998,-7.656328200000001,5.719501999999999,0.2010394,0.0478613,0.040836199999999996
12225,12:35:41.651000,1.6902337,-7.8143387,5.8416009,0.23036089999999998,0.049083,0.0396144
12226,12:35:41.663000,1.5801051000000002,-7.816732400000001,5.9325767,0.23036089999999998,0.049083,0.0396144
12227,12:35:41.670000,1.6184107,-7.8382797,6.083405,0.2474651,0.0441961,0.035949300000000003
12228,12:35:41.681000,1.6638986,-7.895737599999999,6.1887455000000005,0.2877822,0.0197615,0.034727499999999994
12229,12:35:41.690000,1.6710808000000001,-7.8454614000000005,6.528707499999999,0.3219906,0.017318,0.0432796
12230,12:35:41.700000,1.6998101000000003,-7.8646145,6.8638811,0.35864250000000003,0.0246484,0.0457231
12231,12:35:41.709000,1.7500861,-7.811944,6.9524631999999995,0.3757467,0.0319788,0.038392699999999995
12232,12:35:41.719000,1.5848933,-7.7425156,6.820787400000001,0.3757467,0.0319788,0.038392699999999995
12233,12:35:41.729000,1.2545078,-7.570139900000001,6.693900099999999,0.4001813,0.0649655,0.0335058
12234,12:35:41.738000,1.1204382,-7.4288883000000006,6.3922434,0.4001813,0.0649655,0.0335058
12235,12:35:41.747000,1.3143603000000001,-7.2086315,6.2581739,0.4001813,0.05396990000000001,0.037170999999999996
12236,12:35:41.759000,1.5202527,-6.8830342,6.0091882000000005,0.40628990000000004,0.0136528,0.031062299999999998
12237,12:35:41.769000,1.8147268,-6.739388000000001,5.8176599,0.4001813,-0.09874630000000001,0.029840600000000002
12238,12:35:41.780000,2.0182252,-6.5095544,5.8056893,0.3781901,-0.1500589,0.0420579
12239,12:35:41.787000,2.1666594,-6.545465900000001,5.9541235,0.3781901,-0.1500589,0.0420579
12240,12:35:41.797000,2.3414285,-6.8327579,6.1456513,0.3073298,-0.24901900000000002,0.1251355
12241,12:35:41.807000,2.4036752999999997,-7.0051331999999995,6.3012681,0.2828952,-0.2661232,0.17522639999999998
12242,12:35:41.817000,2.2696054,-7.0745621,6.3299971,0.2792301,-0.2416886,0.22776079999999999
12243,12:35:41.827000,1.9152790000000002,-7.0218916,6.289297599999999,0.2792301,-0.2416886,0.22776079999999999
12244,12:35:41.836000,1.6184107,-7.0530152,6.0690403,0.284117,-0.1341764,0.3132818
12245,12:35:41.849000,1.4747648000000002,-7.0099211,5.9684882,0.27434309999999995,-0.0950811,0.3132818
12246,12:35:41.855000,1.211414,-7.1200494999999995,5.9158182,0.27434309999999995,-0.0950811,0.3132818
12247,12:35:41.864000,1.1012853,-7.2660894,5.8823004,0.25846060000000004,-0.0608726,0.2888472
12248,12:35:41.874000,1.0270684,-7.4432529999999995,5.6931671999999995,0.24502159999999998,-0.0352163,0.244865
12249,12:35:41.884000,0.9193339,-7.809549799999999,5.4465747,0.22547399999999998,-0.019333799999999998,0.1740047
12250,12:35:41.897000,0.9265162,-8.137541800000001,5.2741995,0.24502159999999998,0.0002138,0.054275199999999996
12251,12:35:41.905000,0.9576395000000001,-8.3673754,5.1544943,0.24502159999999998,0.0002138,0.054275199999999996
12252,12:35:41.915000,1.0821326,-8.5301743,5.0036664,0.38307709999999995,-0.0352163,-0.055680499999999994
12253,12:35:41.923000,1.2497194999999999,-8.611573199999999,4.8743849,0.38307709999999995,-0.0352163,-0.055680499999999994
12254,12:35:41.933000,1.5322232,-8.8916826,4.654128099999999,0.5675581999999999,-0.0743117,-0.188849
12255,12:35:41.943000,2.0685015,-9.171792,4.5416055,0.5675581999999999,-0.0743117,-0.188849
12256,12:35:41.962000,3.2942801,-10.416724199999999,4.318954,0.8900948000000001,-0.03277290000000001,-0.5553678000000001
12257,12:35:41.972000,3.7587349000000003,-11.223534599999999,4.3859892,0.8900948000000001,-0.03277290000000001,-0.5553678000000001
12258,12:35:41.981000,3.8928044,-11.9896469,4.529635,1.3421346,0.15781689999999998,-0.8131527
12259,12:35:41.991000,3.8401343999999997,-12.1763859,5.0778837,1.3421346,0.15781689999999998,-0.8131527
12260,12:35:42.001000,3.7730997000000004,-11.738266000000001,5.654861,1.7135403999999999,0.2787682,-0.8632436
12261,12:35:42.013000,3.5169311000000003,-10.8428726,6.3180265,2.4930038,0.5451052,-0.7312968000000001
12262,12:35:42.020000,3.126693,-9.617094999999999,6.8255754,2.4930038,0.5451052,-0.7312968000000001
12263,12:35:42.033000,2.7173021,-8.0920544,7.220602,2.8521922,0.6709433000000001,-0.572472
12264,12:35:42.040000,2.4300102999999997,-6.753752700000001,7.646751400000001,3.1331898999999996,0.7601295,-0.4173124
12265,12:35:42.049000,2.0110431,-5.022819,8.0369892,3.2797976,0.7735685999999999,-0.11798869999999999
12266,12:35:42.062000,1.7692389,-3.7659172999999995,8.4344101,3.2797976,0.7735685999999999,-0.11798869999999999
12267,12:35:42.068000,1.7764213,-2.8513715,8.9515352,3.0965381,0.7002648,0.0554969
12268,12:35:42.080000,1.9440081000000002,-2.2456646,9.571606599999999,2.4502432,0.4901273,0.24608670000000002
12269,12:35:42.088000,2.1906002,-1.7716331000000003,9.8373518,2.4502432,0.4901273,0.24608670000000002
12270,12:35:42.098000,2.4395863999999996,-1.8985202,10.191678,2.0446291000000003,0.4156018,0.2986211
12271,12:35:42.108000,2.5329566000000003,-2.1906002,9.9187508,1.213853,0.34718499999999997,0.2851821
12272,12:35:42.117000,2.1235654,-2.449163,9.5309067,1.213853,0.34718499999999997,0.2851821
12273,12:35:42.128000,1.4197004999999998,-3.0788109,9.2172804,0.5700017,0.5035664000000001,0.226539
12274,12:35:42.136000,0.8522992,-3.5432663,8.999417300000001,0.5700017,0.5035664000000001,0.226539
12275,12:35:42.147000,0.5195194000000001,-4.1322145,9.1023626,0.1546136,0.5023446,0.172783
12276,12:35:42.155000,0.5482486,-4.9557843,9.1622162,0.1546136,0.5023446,0.172783
12277,12:35:42.165000,0.5075489000000001,-5.774566200000001,9.143062599999999,0.032440699999999996,0.4437016,0.1129182
12278,12:35:42.178000,0.5961305,-6.4042139,8.8773184,0.042214499999999995,0.3667327,-0.0202503
12279,12:35:42.184000,0.6966828,-6.8375459,8.62115,0.042214499999999995,0.3667327,-0.0202503
12280,12:35:42.198000,0.7278060000000001,-6.8902159,8.6307259,0.4759285,0.3813934,-0.183962
12281,12:35:42.204000,0.5626131999999999,-6.593348,8.573267900000001,0.4759285,0.3813934,-0.183962
12282,12:35:42.214000,0.2920801,-5.5926147,8.7552195,1.15521,0.4754666,-0.3476738
12283,12:35:42.227000,0.3902381,-5.034789599999999,8.5277796,1.3567954,0.4901273,-0.38921259999999996
12284,12:35:42.233000,0.7876585,-4.6206107,8.5612974,1.3567954,0.4901273,-0.38921259999999996
12285,12:35:42.243000,0.7038651,-3.9095633000000003,8.3889217,1.6060282,0.5047881,-0.49550299999999997
12286,12:35:42.253000,0.5937365,-3.296674,8.391316400000001,1.6060282,0.5047881,-0.49550299999999997
12287,12:35:42.262000,0.725412,-2.8824949,8.3769512,1.6390148,0.5512138000000001,-0.47351190000000004
12288,12:35:42.272000,1.1778966,-2.5090156,8.520597500000001,1.6390148,0.5512138000000001,-0.47351190000000004
12289,12:35:42.281000,1.5082823,-2.1163833,8.633119599999999,1.6243541000000001,0.5035664000000001,-0.45885119999999996
12290,12:35:42.293000,1.4508239,-1.7524803,8.72649,1.5986978,0.46935790000000005,-0.36722140000000003
12291,12:35:42.301000,1.2952073999999998,-1.1276205,8.6905785,1.5986978,0.46935790000000005,-0.36722140000000003
12292,12:35:42.311000,1.649534,-1.1276205,8.834223699999999,1.5742631999999999,0.45958409999999994,-0.2951394
12293,12:35:42.321000,1.5705287,-0.8307523000000001,8.791131,1.498516,0.40094109999999994,-0.2169487
12294,12:35:42.331000,1.5322232,-0.4620611,8.958718300000001,1.4826335,0.3056462,-0.09233229999999999
12295,12:35:42.342000,1.4604002,-0.18195150000000002,8.8916826,1.4740813999999998,0.256777,-0.021472
12296,12:35:42.349000,1.3311188,-0.014364600000000002,8.8174658,1.4740813999999998,0.256777,-0.021472
12297,12:35:42.361000,1.3885771999999998,0.2561686,8.9060469,1.3873386,0.1016174,0.0970357
12298,12:35:42.368000,1.4029418,0.459667,9.080817199999998,1.3873386,0.1016174,0.0970357
12299,12:35:42.379000,1.4699767,0.5290958,9.1526403,1.3250303999999997,0.0319788,0.1471266
12300,12:35:42.391000,1.6040461000000001,0.5195194000000001,9.2053099,1.2334007,-0.020555599999999997,0.1776699
12301,12:35:42.397000,1.6830512999999998,0.5027608,8.989841499999999,1.1381059,-0.052320500000000006,0.19721760000000002
12302,12:35:42.412000,2.0038607,-0.0622466,8.518202800000001,1.0379241,-0.062094399999999994,0.22531729999999997
12303,12:35:42.416000,2.2241178,-0.28489770000000003,8.300340700000001,0.9426290999999999,-0.0449902,0.2399781
12304,12:35:42.427000,2.0493486,-0.6511949,8.4607449,0.9181945,0.094287,0.2644127
12305,12:35:42.436000,1.9344318,-0.8187817,8.700155300000002,0.9181945,0.094287,0.2644127
12306,12:35:42.446000,1.817121,-0.9528513000000001,8.362587,1.0550282,0.3801717,0.1776699
12307,12:35:42.457000,1.503494,-1.2018377,8.1327534,1.0550282,0.3801717,0.1776699
12308,12:35:42.466000,1.2999957,-1.4891294,8.108812299999999,1.0867931999999998,0.5194488,0.18011329999999998
12309,12:35:42.476000,1.0486152,-1.5872875,7.981925,1.2309573,0.7613513000000001,0.18744370000000002
12310,12:35:42.485000,0.7732939,-1.7979681,7.6443577000000005,1.2309573,0.7613513000000001,0.18744370000000002
12311,12:35:42.494000,0.6823182,-1.7620566000000002,7.4935288,1.3299173,0.8432072,0.22165210000000002
12312,12:35:42.505000,0.6464066999999999,-1.3430893,7.354671499999999,1.4765248,0.9091806,0.20821309999999998
12313,12:35:42.514000,0.6631654,-0.9456690000000001,7.4767703999999995,1.6524539,0.9311716999999998,0.2131
12314,12:35:42.532000,0.6320420999999999,0.11252260000000001,8.175847099999999,1.8259395,0.9433889999999999,0.23020429999999997
12315,12:35:42.542000,0.6799241,0.6871063000000001,8.5469332,2.1680238,0.8774155999999999,0.3328295
12316,12:35:42.553000,0.6511949,1.1060736,9.0305405,2.1680238,0.8774155999999999,0.3328295
12317,12:35:42.562000,0.47642559999999995,1.5609524,9.358532,2.1900147999999997,0.8639764999999999,0.38902909999999996
12318,12:35:42.574000,0.411785,1.9966784,9.6721592,2.1008286,0.9238413000000001,0.5197541
12319,12:35:42.582000,0.2729273,2.2193296,9.471055,2.1008286,0.9238413000000001,0.5197541
12320,12:35:42.592000,-0.004788199999999999,2.2552409,9.382473,1.8723651999999997,1.055788,0.628488
12321,12:35:42.601000,-0.49797250000000004,2.2576351000000003,9.1215162,1.8723651999999997,1.055788,0.628488
12322,12:35:42.611000,-0.7828703,2.4467689999999997,8.910836199999999,1.7917311000000002,1.1547482,0.6785789000000001
12323,12:35:42.623000,-1.041433,2.6957552000000002,8.5924196,1.7685182000000002,1.2732558,0.6321532
12324,12:35:42.630000,-1.431671,2.8801007000000003,8.3769512,1.7685182000000002,1.2732558,0.6321532
12325,12:35:42.642000,-1.6423517,2.8944654,8.417651199999998,1.6976578999999998,1.3025775,0.5551842
12326,12:35:42.650000,-2.0254076000000003,3.0907815,8.305128100000001,1.6976578999999998,1.3025775,0.5551842
12327,12:35:42.659000,-2.4060693,3.2320333,8.216547,1.602363,1.2866950000000001,0.43911999999999995
12328,12:35:42.668000,-2.6382967999999996,3.4690489999999996,7.9723492,1.602363,1.2866950000000001,0.43911999999999995
12329,12:35:42.678000,-2.6861787,3.6725476,7.981925,1.5278375,1.2488213,0.38780729999999997
12330,12:35:42.689000,-2.693361,3.6773357000000004,7.9555898,1.3409129,1.151083,0.3132818
12331,12:35:42.698000,-2.6382967999999996,3.7012767999999996,7.9651666,1.3409129,1.151083,0.3132818
12332,12:35:42.708000,-2.6263263,3.8042231,7.929255,1.2211834,1.1303136,0.25097359999999996
12333,12:35:42.718000,-2.5473211,3.7922525,7.7425156,1.1979705,1.1645219,0.2118783
12334,12:35:42.727000,-2.4994389999999997,3.8066169999999997,7.5868988,1.1979705,1.1645219,0.2118783
12335,12:35:42.739000,-2.7580017999999997,3.8664693999999997,7.361853599999999,1.2517266000000002,1.3050208,0.127579
12336,12:35:42.746000,-2.8178542,4.0771503,7.1511731,1.2957089,1.3428946000000002,0.10803130000000001
12337,12:35:42.755000,-2.8681302000000004,4.5511813,7.1846905,1.2957089,1.3428946000000002,0.10803130000000001
12338,12:35:42.765000,-2.837007,4.8456559,7.1463852,1.3372476999999998,1.3343425,0.1324659
12339,12:35:42.774000,-2.9615002,5.539944599999999,7.1775079,1.3616823,1.3453378999999999,0.1691177
12340,12:35:42.786000,-3.0428995999999997,6.4449139,7.0937147,1.3641257,1.3514466,0.2021044
12341,12:35:42.794000,-3.3780732,7.199055199999999,7.0242853,1.2443963,1.350225,0.35970759999999996
12342,12:35:42.806000,-3.6749415,7.8981318,6.918945299999999,1.2443963,1.350225,0.35970759999999996
12343,12:35:42.814000,-3.9742040999999997,8.4200449,6.962039,1.0916801999999999,1.2952471,0.4049115
12344,12:35:42.826000,-4.0125093000000005,8.479898500000001,6.9285220999999995,0.6335316,1.0008101,0.5173106
12345,12:35:42.834000,-3.9119572999999996,8.429621699999998,7.2469368,0.41362029999999994,0.8224378000000001,0.5393018
12346,12:35:42.842000,-3.9263220000000003,8.2356997,7.0961084,0.41362029999999994,0.8224378000000001,0.5393018
12347,12:35:42.853000,-3.952657,7.8717966,7.0003443,0.0177799,0.5939744,0.5209758
12348,12:35:42.861000,-4.1250324,7.3067894,6.9596448,0.0177799,0.5939744,0.5209758
12349,12:35:42.872000,-3.8999867,6.555042299999999,6.732205400000001,-0.13860139999999999,0.5426616999999999,0.5063151
12350,12:35:42.882000,-3.5408720999999996,5.9852471,6.703476400000001,-0.2436701,0.48279700000000003,0.44767209999999996
12351,12:35:42.892000,-3.2104863999999997,5.286169999999999,6.701082700000001,-0.3072001,0.4302626,0.39880290000000007
12352,12:35:42.906000,-3.1386635,4.984513300000001,6.617289100000001,-0.3450737,0.451032,0.3438251
12353,12:35:42.911000,-3.1841512,4.8552327,6.555042299999999,-0.3450737,0.451032,0.3438251
12354,12:35:42.922000,-3.442714,4.843262200000001,6.5789833,-0.2473353,0.5561007,0.3279426
12355,12:35:42.930000,-3.7467644,4.9797254,6.4999781,-0.2473353,0.5561007,0.3279426
12356,12:35:42.941000,-4.1082735,5.3555989,6.4927959,-0.2021314,0.5829788,0.3279426
12357,12:35:42.950000,-4.4410529,5.729078299999999,6.3898497,-0.15937079999999998,0.5719831999999999,0.3132818
12358,12:35:42.959000,-4.5799112,5.966094,6.385061299999999,-0.136158,0.5341096,0.3316078
12359,12:35:42.972000,-4.6565218,6.1264987,6.3204203,-0.1581491,0.38383690000000004,0.25219539999999996
12360,12:35:42.979000,-4.752286,6.3611207,6.3778790999999995,-0.1581491,0.38383690000000004,0.25219539999999996
12361,12:35:42.989000,-4.6780691,6.193533400000001,6.4018202,-0.2241225,0.2323424,0.1251355
12362,12:35:42.999000,-4.7451034000000005,5.9708824,6.3156323,-0.2241225,0.2323424,0.1251355
12363,12:35:43.008000,-4.7187686,5.8152661,6.2797208,-0.25955259999999997,0.17736459999999998,0.059162099999999995
12364,12:35:43.020000,-4.601458099999999,5.7458372,6.3611207,-0.2314529,0.0637438,-0.0654543
12365,12:35:43.028000,-4.6230044,5.8104777,6.593348,-0.2314529,0.0637438,-0.0654543
12366,12:35:43.039000,-4.630187,5.8248425,6.820787400000001,-0.1569273,0.0063225,-0.1656361
12367,12:35:43.047000,-4.558363900000001,5.8583593,6.938097999999999,-0.1569273,0.0063225,-0.1656361
12368,12:35:43.057000,-4.4458413,5.9613061,7.002739,-0.1679229,-0.0535423,-0.23160949999999997
12369,12:35:43.073000,-4.457811799999999,5.9804587,6.990768400000001,-0.20579650000000002,-0.07308989999999999,-0.24993539999999997
12370,12:35:43.086000,-4.6373695999999995,6.006794,6.725023299999999,-0.20579650000000002,-0.07308989999999999,-0.24993539999999997
12371,12:35:43.095000,-4.682857,5.757807700000001,6.428154900000001,-0.3133087,-0.09874630000000001,-0.2914743
12372,12:35:43.105000,-4.687645400000001,5.5279741,6.3443613,-0.35729099999999997,-0.1146287,-0.3281261
12373,12:35:43.115000,-4.6660986,5.5686735999999994,6.3419676,-0.3695083,-0.1341764,-0.3843257
12374,12:35:43.124000,-4.5009055,5.4824858,6.4473081,-0.3548475,-0.1671631,-0.42586450000000003
12375,12:35:43.136000,-4.4913292,5.4346042,6.617289100000001,-0.3096435,-0.2196975,-0.49672479999999997
12376,12:35:43.144000,-4.4290824,5.480092,6.854304300000001,-0.3096435,-0.2196975,-0.49672479999999997
12377,12:35:43.153000,-4.2782545,5.456151,6.997950599999999,-0.3096435,-0.24901900000000002,-0.5126073
12378,12:35:43.165000,-4.1202440000000005,5.5207915000000005,7.167931599999999,-0.3096435,-0.24901900000000002,-0.5126073
12379,12:35:43.173000,-3.9670214999999995,5.6428905,7.292425200000001,-0.3511823,-0.2661232,-0.5064986
12380,12:35:43.186000,-3.9861746,5.767384099999999,7.2660894,-0.4037167,-0.24901900000000002,-0.5028334
12381,12:35:43.192000,-4.0939087999999995,5.6093736,7.249331,-0.4037167,-0.24901900000000002,-0.5028334
12382,12:35:43.202000,-4.177702399999999,5.5447326,7.1511731,-0.5271114,-0.22458440000000002,-0.5064986
12383,12:35:43.211000,-4.1034851,5.5160035999999995,7.0410447,-0.5833109999999999,-0.2465755,-0.5223810999999999
12384,12:35:43.220000,-4.0172977,5.5112157,6.930915799999999,-0.5833109999999999,-0.2465755,-0.5223810999999999
12385,12:35:43.231000,-3.9406865,5.3244753,6.9117632,-0.6456192,-0.2868926,-0.5358201
12386,12:35:43.240000,-3.8928044,5.199982599999999,6.9572511,-0.7189229,-0.3247662,-0.5492592
12387,12:35:43.255000,-3.7443705,5.0204248,7.165537400000001,-0.876526,-0.3968483,-0.5651417
12388,12:35:43.260000,-3.4977782,4.9318433,7.3403072,-0.876526,-0.3968483,-0.5651417
12389,12:35:43.270000,-3.3158267,4.6804628,7.4360704,-0.9596037000000001,-0.44449570000000005,-0.5565895000000001
12390,12:35:43.280000,-3.1362693,4.3428949999999995,7.5198641,-1.0487899,-0.47381720000000005,-0.5370418
12391,12:35:43.289000,-3.2248509,4.1441851000000005,7.491135099999999,-1.1208718999999998,-0.4713737,-0.5162725
12392,12:35:43.301000,-3.3613148,3.9813862,7.409735700000001,-1.1905105,-0.3834092,-0.4918379
12393,12:35:43.308000,-3.4977782,3.9478687999999993,7.3283366999999995,-1.1905105,-0.3834092,-0.4918379
12394,12:35:43.318000,-3.4379258000000004,3.7515528,7.285242599999999,-1.2662578000000002,-0.3650833,-0.4796206
12395,12:35:43.327000,-3.4044084999999997,3.6438181000000003,7.337912599999999,-1.2662578000000002,-0.3650833,-0.4796206
12396,12:35:43.338000,-3.4570785,3.4594727,7.4887409,-1.3126835,-0.3773006,-0.47595540000000003
12397,12:35:43.350000,-3.5959363,3.1673927,7.6156277999999995,-1.3920958,-0.38096579999999997,-0.4722902
12398,12:35:43.357000,-3.7060647000000007,2.9854412,7.8622203,-1.4238608,-0.3882961,-0.4796206
12399,12:35:43.368000,-3.7659172999999995,2.7747604999999997,8.0729008,-1.4544041,-0.41395240000000005,-0.46740329999999997
12400,12:35:43.376000,-3.7970405,2.5114095,8.3290691,-1.4544041,-0.41395240000000005,-0.46740329999999997
12401,12:35:43.386000,-3.8233757000000006,2.4132514,8.3242817,-1.4800603,-0.43227840000000006,-0.4612946
12402,12:35:43.399000,-3.8616812000000005,2.1163833,8.4727154,-1.491056,-0.4359436,-0.4869509
12403,12:35:43.405000,-3.7826760000000004,2.2313001,8.4607449,-1.4886125,-0.43716530000000003,-0.513829
12404,12:35:43.417000,-3.8928044,2.2313001,8.269216499999999,-1.5362599,-0.4713737,-0.5785807
12405,12:35:43.425000,-4.0771503,1.9057026000000001,8.1183891,-1.5362599,-0.4713737,-0.5785807
12406,12:35:43.435000,-4.0771503,1.4508239,7.960378599999999,-1.6095636999999998,-0.5006952,-0.604237
12407,12:35:43.445000,-4.0627856,1.1922611,7.907708199999999,-1.6987499,-0.5471209,-0.6445541
12408,12:35:43.454000,-3.8544991000000004,0.8929988000000001,7.905314,-1.8025968999999997,-0.7010589,-0.7447359
12409,12:35:43.466000,-3.610301,0.4836079000000001,7.9244671,-1.8368053,-0.7902451,-0.7874964
12410,12:35:43.473000,-3.2440037999999998,0.3040505,7.8598261,-1.8368053,-0.7902451,-0.7874964
12411,12:35:43.483000,-2.8609481,0.0215469,7.9651666,-1.8844528000000003,-0.9796132,-0.8571350000000001
12412,12:35:43.493000,-2.422828,-0.2729273,8.0130482,-1.8844528000000003,-0.9796132,-0.8571350000000001
12413,12:35:43.502000,-2.0086489,-0.5913424,8.127965,-1.9064438000000001,-1.0578039,-0.8766825999999999
12414,12:35:43.514000,-1.601652,-0.8570873999999999,8.252458599999999,-1.9308786,-1.1140033999999999,-0.8864565000000001
12415,12:35:43.522000,-1.3359071000000002,-1.1802906000000002,8.156694400000001,-1.9565348999999999,-1.1421032,-0.8864565000000001
12416,12:35:43.533000,-1.1611378,-1.5106763,8.082477599999999,-2.0066257,-1.1335511,-0.8534698000000001
12417,12:35:43.541000,-1.0486152,-1.7045983,7.981925,-2.0066257,-1.1335511,-0.8534698000000001
12418,12:35:43.551000,-0.8690578999999999,-1.8482443,7.9101024,-2.0066257,-1.1237773000000002,-0.8155962
12419,12:35:43.560000,-0.6775299,-1.8673970000000002,8.0417776,-1.9821911,-1.1274423999999998,-0.7703922
12420,12:35:43.570000,-0.4237555,-1.8937321,8.0609303,-1.8942265999999999,-1.1433249,-0.6836494000000001
12421,12:35:43.582000,-0.217863,-1.6351695,8.348222699999999,-1.8514662,-1.1335511,-0.6421106
12422,12:35:43.589000,-0.3112328,-1.5992579,8.4463797,-1.8514662,-1.1335511,-0.6421106
12423,12:35:43.599000,-0.5793719,-1.9535846999999997,8.3889217,-1.941874,-1.0626906999999999,-0.5297115
12424,12:35:43.609000,-0.6200716,-1.8266973000000002,8.3027344,-1.941874,-1.0626906999999999,-0.5297115
12425,12:35:43.618000,-0.6200716,-1.7117807,8.1255713,-2.1055857999999996,-1.1140033999999999,-0.44052520000000006
12426,12:35:43.631000,-0.5889483,-1.8721851999999999,7.5533814,-2.1055857999999996,-1.1140033999999999,-0.44052520000000006
12427,12:35:43.638000,-0.2394099,-2.0278015,7.2828484,-2.2302022,-1.1579857,-0.4356383
12428,12:35:43.651000,0.1484341,-2.2600293,7.3857946,-2.3707011000000002,-1.2178503999999999,-0.46373809999999993
12429,12:35:43.657000,0.387844,-2.9231944,7.929255,-2.4867654,-1.255724,-0.5431505
12430,12:35:43.668000,0.7278060000000001,-3.8712578,8.520597500000001,-2.6639161,-1.1482118000000001,-0.785053
12431,12:35:43.686000,1.8889439,-5.685984599999999,10.021697,-2.6639161,-1.1482118000000001,-0.785053
12432,12:35:43.699000,1.9057026000000001,-6.3276029000000005,10.8141441,-2.6663597,-0.6350855,-0.9622037
12433,12:35:43.706000,1.6806574,-6.854304300000001,11.2187471,-2.5808387,-0.3846309,-0.8363655999999999
12434,12:35:43.716000,1.3646363000000001,-7.0362558,11.5658913,-2.4831002,-0.2001498,-0.6897581
12435,12:35:43.725000,1.1970493999999998,-6.885428,11.7286901,-2.4831002,-0.2001498,-0.6897581
12436,12:35:43.734000,1.2066257,-6.930915799999999,11.7717838,-2.2717412,-0.0804203,-0.4722902
12437,12:35:43.747000,1.3718187,-6.8255754,11.4413977,-2.2717412,-0.0804203,-0.4722902
12438,12:35:43.754000,1.5226468,-6.416184400000001,10.720773699999999,-2.2228717999999996,-0.086529,-0.3953212
12439,12:35:43.766000,1.5274348999999998,-6.0163698,9.5548477,-2.2619672000000004,-0.0474336,-0.40265159999999994
12440,12:35:43.773000,1.3981537,-6.169592400000001,8.1543007,-2.2619672000000004,-0.0474336,-0.40265159999999994
12441,12:35:43.782000,1.1132559,-6.253386,7.1607494,-2.2998409,0.0722959,-0.4845075
12442,12:35:43.793000,0.8259639999999999,-6.547860099999999,6.2438097,-2.2998409,0.0722959,-0.4845075
12443,12:35:43.802000,0.8618754999999999,-6.4401255,5.7218962,-2.2436414,0.0930653,-0.4796206
12444,12:35:43.818000,0.7062590999999999,-5.729078299999999,5.2430763,-1.9626433999999997,0.0466395,-0.44785559999999996
12445,12:35:43.822000,0.5027608,-5.1544943,4.7331328,-1.8135926,0.0136528,-0.3928778
12446,12:35:43.832000,0.35911479999999996,-4.4458413,4.5846992,-1.8135926,0.0136528,-0.3928778
12447,12:35:43.840000,0.3615089,-4.2974076,4.7139807000000005,-1.6413287,-0.11951569999999999,-0.3562259
12448,12:35:43.850000,0.40220859999999997,-5.0683069000000005,5.080277400000001,-1.6413287,-0.11951569999999999,-0.3562259
12449,12:35:43.861000,0.533884,-6.4137907,5.48488,-1.7989316999999998,-0.31132719999999997,-0.5150507000000001
12450,12:35:43.870000,0.5889483,-8.2380943,5.7793546,-1.7989316999999998,-0.31132719999999997,-0.5150507000000001
12451,12:35:43.879000,0.5410663,-9.9498739,5.8463888,-1.9308786,-0.3748571,-0.6164543
12452,12:35:43.890000,0.9049693000000001,-11.288175599999999,5.5854325,-2.0151779999999997,-0.38707440000000004,-0.7093056999999999
12453,12:35:43.899000,1.5633465,-12.118928,5.1233716,-2.0029607,-0.4054003,-0.7728357
12454,12:35:43.910000,2.0301956999999997,-12.1620216,4.5463934,-1.8710139,-0.41883940000000003,-0.8082658
12455,12:35:43.919000,2.640691,-11.7861481,4.1058793,-1.6376635,-0.4054003,-0.7630618
12456,12:35:43.929000,2.932771,-11.1828346,3.7683115,-1.0939938999999999,-0.2954447,-0.6714321
12457,12:35:43.938000,3.1386635,-10.967366199999999,3.6749415,-1.0939938999999999,-0.2954447,-0.6714321
12458,12:35:43.947000,3.3230089999999994,-11.156499900000002,3.2751269,-0.8105526,-0.14639370000000002,-0.5810241
12459,12:35:43.960000,3.4834137000000003,-11.163682000000001,2.8489776,-0.8105526,-0.14639370000000002,-0.5810241
12460,12:35:43.967000,3.7300057,-11.173258800000001,2.5999912999999997,-0.7030404,-0.0877507,-0.4991682
12461,12:35:43.979000,3.7084589,-10.0193033,2.2743938,-0.3279695,0.04541780000000001,-0.2511572
12462,12:35:43.987000,3.5097487000000003,-10.0097265,2.327064,-0.3279695,0.04541780000000001,-0.2511572
12463,12:35:43.997000,3.4522904999999997,-10.095913900000001,2.2576351000000003,-0.07751489999999998,0.1712559,0.0176233
12464,12:35:44.006000,3.4522904999999997,-10.455028500000001,2.4683158,-0.07751489999999998,0.1712559,0.0176233
12465,12:35:44.016000,3.1554222000000003,-10.9386368,2.6143558,0.0018975,0.2225686,0.1043661
12466,12:35:44.028000,2.7627900000000003,-11.7334776,2.47071,0.1827134,0.39483240000000003,0.23142600000000002
12467,12:35:44.035000,2.5042272,-12.4205837,2.4204338,0.1827134,0.39483240000000003,0.23142600000000002
12468,12:35:44.046000,1.8865498,-12.4948006,2.1666594,0.5345715,0.4864622,0.3719248
12469,12:35:44.055000,1.0749503,-12.5833826,1.9440081000000002,0.5345715,0.4864622,0.3719248
12470,12:35:44.064000,0.32320340000000003,-12.6312647,1.8602147,0.8546646000000001,0.514562,0.43423310000000004
12471,12:35:44.074000,0.045487900000000005,-12.250602699999998,2.5138037,1.2309573,0.4754666,0.46599799999999997
12472,12:35:44.084000,-0.0646407,-11.273811300000002,3.442714,1.6585625,0.3410763,0.4806588
12473,12:35:44.096000,0.045487900000000005,-10.1964674,4.405141400000001,2.4856734,0.025870099999999997,0.4855457
12474,12:35:44.103000,0.2537745,-8.9946289,5.2191353,2.4856734,0.025870099999999997,0.4855457
12475,12:35:44.112000,0.6368303000000001,-7.656328200000001,6.0642519,2.7617842999999995,-0.058429199999999994,0.4501155
12476,12:35:44.123000,1.0629798000000001,-6.835152099999999,6.626865400000001,2.8778486,-0.0877507,0.4378982
12477,12:35:44.132000,1.4795530000000001,-6.3276029000000005,7.2948189,2.6444981,0.030757099999999996,0.44522860000000003
12478,12:35:44.144000,1.8745793999999998,-6.310844400000001,7.6898451,2.3683875,0.13582579999999997,0.47699359999999996
12479,12:35:44.151000,2.1642652,-6.657988499999999,7.6802687999999995,2.3683875,0.13582579999999997,0.47699359999999996
12480,12:35:44.162000,2.6239324,-7.3450952,7.1631436,1.7819573,0.2738812,0.5796188
12481,12:35:44.171000,2.8944654,-7.828702900000001,7.5198641,1.7819573,0.2738812,0.5796188
12482,12:35:44.180000,2.9255888,-7.9627724,7.452829400000001,1.6610060000000002,0.3032027,0.5918361999999999
12483,12:35:44.195000,2.5808383999999998,-7.469587799999999,7.6706924,1.7868441000000002,0.4571406,0.6859093
12484,12:35:44.200000,1.5417996999999999,-6.686717999999999,7.756879799999999,1.7868441000000002,0.4571406,0.6859093
12485,12:35:44.210000,0.5721896,-5.5782499,7.9316492,2.0238596999999996,0.672165,0.8593948
12486,12:35:44.219000,0.0526702,-4.3309245,8.1997881,2.0238596999999996,0.672165,0.8593948
12487,12:35:44.229000,-0.265745,-3.4379258000000004,8.5493269,1.9187908999999999,0.6636129,1.0463195
12488,12:35:44.248000,-1.7883917,-2.7603958,8.896471,1.9187908999999999,0.6636129,1.0463195
12489,12:35:44.260000,-2.475498,-2.813066,9.2675562,1.3555736999999999,0.5695397,0.9974503
12490,12:35:44.268000,-2.7675784,-3.3828616,9.7487698,1.3555736999999999,0.5695397,0.9974503
12491,12:35:44.278000,-2.8441892,-4.2184019,9.957057,0.8461125,0.3361894,0.8325168
12492,12:35:44.287000,-2.4778922000000003,-4.9031138,9.892416,0.8461125,0.3361894,0.8325168
12493,12:35:44.297000,-1.9440081000000002,-5.3292642,9.624277099999999,0.6445272,0.2518901,0.7518826999999999
12494,12:35:44.309000,-1.5394055,-5.3939047,9.6625834,0.5113585999999999,0.19691229999999998,0.6773571999999999
12495,12:35:44.316000,-1.3143603000000001,-5.199982599999999,9.389655099999999,0.43561140000000004,0.184695,0.6443705
12496,12:35:44.327000,-1.4604002,-5.039578,9.4112024,0.2792301,0.2457815,0.6431488000000001
12497,12:35:44.336000,-1.8482443,-5.0898538,9.7008877,0.2792301,0.2457815,0.6431488000000001
12498,12:35:44.345000,-1.9176731,-4.9031138,10.3425074,0.1436181,0.2592205,0.6626964
12499,12:35:44.358000,-1.5537702,-4.6900395999999995,11.276205099999999,-0.013985,0.2323424,0.6981265999999999
12500,12:35:44.365000,-2.1690536,-5.5830383,10.7231684,-0.1911358,0.198134,0.7494392
12501,12:35:44.375000,-2.2983347999999997,-5.9828529,10.1773138,-0.5222244,0.22623379999999998,0.854508
12502,12:35:44.384000,-2.4467689999999997,-6.1863508000000005,9.370502499999999,-0.5222244,0.22623379999999998,0.854508
12503,12:35:44.393000,-2.3174875,-6.713053200000001,10.040849699999999,-0.4538076,0.2653291,0.8264082
12504,12:35:44.404000,-1.7883917,-6.4616723,8.496656399999999,-0.28032199999999996,0.3007593,0.7824259
12505,12:35:44.413000,-1.5489819,-6.569407000000001,8.0968418,0.076423,0.2946506,0.6981265999999999
12506,12:35:44.425000,-1.7165686999999998,-6.753752700000001,7.4360704,0.2376913,0.44736679999999995,0.6724703000000001
12507,12:35:44.432000,-1.5441937,-6.827969599999999,7.232572599999999,0.2376913,0.44736679999999995,0.6724703000000001
12508,12:35:44.444000,0.4500906,-5.451363099999999,9.0999689,1.2431746000000001,0.3288591,0.5979448
12509,12:35:44.452000,0.059852499999999996,-3.2799153,7.407341499999999,1.2431746000000001,0.3288591,0.5979448
12510,12:35:44.462000,-1.3885771999999998,-4.6182165,6.861486900000001,1.6121368,0.8089987,0.4598894
12511,12:35:44.474000,-2.2073591,-3.8736517,6.5502539,1.6842188999999999,0.8859676999999999,0.4366765
12512,12:35:44.481000,-2.0780778000000004,-3.0285349,6.1025577,1.8259395,0.8041118,0.4378982
12513,12:35:44.492000,-2.0134369999999997,-2.9591060000000002,6.1001635,1.8332698,0.7051516999999999,0.4134637
12514,12:35:44.500000,-1.7812095000000001,-3.2918858999999996,6.152833900000001,1.8332698,0.7051516999999999,0.4134637
12515,12:35:44.509000,-1.0534035,-2.6382967999999996,6.540678,1.7367531999999999,0.613522,0.4317896
12516,12:35:44.519000,-0.8499051,-1.9224613000000002,6.813604799999999,1.7550792000000002,0.48524040000000007,0.42445920000000004
12517,12:35:44.529000,-0.9121516,-1.8841558,6.978797900000001,1.7990613999999998,0.3887238,0.4159071
12518,12:35:44.544000,-0.9600335999999999,-2.2336943,7.002739,1.4789683999999998,0.3325242,0.4782153
12519,12:35:44.547000,-0.8522992,-2.1475065,7.2828484,1.4789683999999998,0.3325242,0.4782153
12520,12:35:44.559000,-0.7732939,-1.9033084999999998,7.1248379,1.3128132,0.31053309999999995,0.5490755999999999
12521,12:35:44.567000,-0.6344361999999999,-1.9679491999999998,7.0961084,1.3128132,0.31053309999999995,0.5490755999999999
12522,12:35:44.578000,-0.5793719,-1.8626089,6.9596448,1.2346225,0.3190852,0.5893927
12523,12:35:44.591000,-0.5937365,-1.6830512999999998,7.1368084000000005,1.1845316000000001,0.3300808,0.6211576
12524,12:35:44.597000,-0.8068113,-1.6208049,7.0985031,1.1796446000000003,0.3532937,0.6223794
12525,12:35:44.608000,-0.9360925999999999,-1.4819472,7.1511731,1.1197799,0.419267,0.6382619
12526,12:35:44.616000,-0.9121516,-1.4795530000000001,7.347488900000001,1.1197799,0.419267,0.6382619
12527,12:35:44.627000,-0.9313045,-1.7237511000000003,7.055409,1.0171546999999999,0.4314843,0.7066786999999999
12528,12:35:44.635000,-0.9911568999999999,-1.8410618000000003,7.0937147,1.0171546999999999,0.4314843,0.7066786999999999
12529,12:35:44.644000,-0.9672159,-1.6543223000000002,7.115261599999999,1.0024939,0.4437016,0.7653217
12530,12:35:44.655000,-0.8570873999999999,-1.1826848,7.452829400000001,1.3213652,0.45347550000000003,0.8190778000000001
12531,12:35:44.664000,-0.7685057,-0.5147311999999999,7.8670086999999995,1.3213652,0.45347550000000003,0.8190778000000001
12532,12:35:44.675000,-0.6392244,0.004788199999999999,8.5349617,1.5424982,0.4901273,0.8936033000000001
12533,12:35:44.684000,-0.6679536,0.40220859999999997,9.2053099,1.5424982,0.4901273,0.8936033000000001
12534,12:35:44.693000,-0.9911568999999999,0.557825,9.3800793,1.5302809,0.5328879,0.9412507
12535,12:35:44.706000,-1.3454834999999998,0.6392244,9.4327488,1.3384695,0.7149255,1.0499847
12536,12:35:44.713000,-2.1211715,0.7804762,8.807889,1.3384695,0.7149255,1.0499847
12537,12:35:44.725000,-2.8058836,0.8738461,8.6163607,1.2089661,0.9531628000000001,1.1965921999999998
12538,12:35:44.733000,-3.442714,1.2664783000000002,8.429621699999998,1.2089661,0.9531628000000001,1.1965921999999998
12539,12:35:44.742000,-3.8353462,1.4053360000000001,8.441592199999999,1.2492832,1.015471,1.243018
12540,12:35:44.756000,-4.1034851,1.7022042000000002,8.0944481,1.309148,1.0435708000000001,1.2674526000000002
12541,12:35:44.762000,-4.3405008,2.1451125,8.0920544,1.3800082,1.047236,1.2674526000000002
12542,12:35:44.774000,-4.687645400000001,2.1499007000000003,7.8143387,1.4704162,1.0289099,1.2198051
12543,12:35:44.781000,-4.9438138,2.0469543999999997,7.6443577000000005,1.4704162,1.0289099,1.2198051
12544,12:35:44.791000,-5.0922480000000006,2.1283537999999997,7.5533814,1.4679728,1.0032537000000001,1.1941488
12545,12:35:44.810000,-4.876779099999999,2.3749461,7.7592740000000004,1.4838552,0.9519411,1.1892619
12546,12:35:44.820000,-4.8193212,2.5066216,7.754486099999999,1.5156201999999999,0.7601295,1.1403927
12547,12:35:44.829000,-4.8312917,2.4683158,7.618022,1.5156201999999999,0.7601295,1.1403927
12548,12:35:44.840000,-4.9773316,2.667026,7.4432529999999995,1.5095116000000002,0.7063735,1.1281754
12549,12:35:44.849000,-5.2215295,2.932771,7.2876363,1.5095116000000002,0.7063735,1.1281754
12550,12:35:44.859000,-5.2933525999999995,3.3277972,7.2349663,1.5901457,0.6061916,1.1489448999999998
12551,12:35:44.871000,-5.1808295,3.6486065,7.1846905,1.6365714,0.5267791999999999,1.1000756
12552,12:35:44.878000,-5.1664648,3.9263220000000003,7.0410447,1.6365714,0.5267791999999999,1.1000756
12553,12:35:44.888000,-5.1664648,4.139396700000001,6.827969599999999,1.5986978,0.3703979,0.9962285
12554,12:35:44.897000,-5.097035900000001,4.3716245,6.717841099999999,1.5473852,0.288542,0.9314769
12555,12:35:44.907000,-5.1305537,4.582305,6.693900099999999,1.4887421,0.2176817,0.8716122
12556,12:35:44.915000,-5.1544943,4.4338708,6.6364417,1.4887421,0.2176817,0.8716122
12557,12:35:44.925000,-5.0563364,4.1082735,6.6125007,1.4337643,0.1480431,0.8056388000000001
12558,12:35:44.936000,-5.0323954,4.242342900000001,6.7848759,1.4728596999999999,0.022205000000000003,0.641927
12559,12:35:44.945000,-4.9294496,4.4530234,6.909369,1.4728596999999999,0.022205000000000003,0.641927
12560,12:35:44.956000,-4.8097444000000005,4.6684923,7.1272321,1.6011413,-0.131733,0.6101621
12561,12:35:44.966000,-4.821714900000001,4.900720099999999,7.4288883000000006,1.6011413,-0.131733,0.6101621
12562,12:35:44.975000,-4.8193212,5.3771458,7.682663000000001,1.6402366000000002,-0.17205,0.5918361999999999
12563,12:35:44.987000,-4.8121386,5.875118700000001,7.9508018,1.64268,-0.20137149999999998,0.4806588
12564,12:35:44.995000,-4.792985400000001,6.5095544,8.1064186,1.64268,-0.20137149999999998,0.4806588
12565,12:35:45.005000,-4.524846599999999,6.918945299999999,8.2356997,1.3567954,-0.275897,0.40124640000000006
12566,12:35:45.014000,-4.2160082,7.0338621,8.2476702,1.3567954,-0.275897,0.40124640000000006
12567,12:35:45.023000,-4.1585493,6.8327579,7.960378599999999,1.1429927,-0.2893361,0.3328295
12568,12:35:45.035000,-4.2614961,6.516737,7.606051400000001,0.9059771999999999,-0.27345359999999996,0.2668561
12569,12:35:45.043000,-4.4410529,6.1241045,7.081744199999999,0.73127,-0.2184757,0.18500020000000003
12570,12:35:45.053000,-4.505693900000001,6.0738287,6.8471227,0.5712234,-0.158611,-0.0153634
12571,12:35:45.062000,-4.354865599999999,6.1480455,6.7369938,0.5712234,-0.158611,-0.0153634
12572,12:35:45.072000,-4.0316625,6.1025577,6.7154469,0.4698198,-0.2649015,-0.098441
12573,12:35:45.082000,-3.8233757000000006,6.0379171,6.7082644,0.4698198,-0.2649015,-0.098441
12574,12:35:45.091000,-3.7036707000000004,5.8631482,6.617289100000001,0.414842,-0.2978882,-0.1521971
12575,12:35:45.103000,-3.6917002,5.6620436,6.456884400000001,0.29266909999999996,-0.2954447,-0.21084009999999997
12576,12:35:45.111000,-3.7443705,5.7147136,6.4113964999999995,0.29266909999999996,-0.2954447,-0.21084009999999997
12577,12:35:45.121000,-3.7204294,5.7003489,6.3874555,0.2609041,-0.30155329999999997,-0.23527470000000003
12578,12:35:45.130000,-3.7850699,5.7554135,6.322814900000001,0.2609041,-0.30155329999999997,-0.23527470000000003
12579,12:35:45.140000,-3.7730997000000004,5.9206061,6.6508064,0.2609041,-0.2917795,-0.24749200000000002
12580,12:35:45.153000,-3.7491589,6.1312871,6.535889599999999,0.265791,-0.275897,-0.2951394
12581,12:35:45.159000,-3.7371883,6.2031102,6.528707499999999,0.265791,-0.275897,-0.2951394
12582,12:35:45.171000,-3.8449225,6.2797208,6.5023718,0.2315826,-0.2563494,-0.31346540000000006
12583,12:35:45.178000,-4.0508150999999994,6.1336808,6.3156323,0.1863786,-0.22458440000000002,-0.3354565
12584,12:35:45.188000,-4.1800966,5.8966651,6.193533400000001,0.1326225,-0.2099236,-0.3745518
12585,12:35:45.201000,-4.201643499999999,6.1456513,6.2964797,0.16072229999999998,-0.22702779999999997,-0.40020809999999996
12586,12:35:45.207000,-4.1944609,6.2940855,6.2653565,0.16072229999999998,-0.22702779999999997,-0.40020809999999996
12587,12:35:45.218000,-4.1465788,6.2126861,6.3587264999999995,0.1289573,-0.2856709,-0.4124255
12588,12:35:45.226000,-4.1034851,6.0331292,6.3802729000000005,0.1289573,-0.2856709,-0.4124255
12589,12:35:45.236000,-4.1872787,6.023552400000001,6.4425197,0.09352719999999999,-0.33454,-0.4564077
12590,12:35:45.246000,-4.3452892,6.0642519,6.4927959,0.09352719999999999,-0.33454,-0.4564077
12591,12:35:45.255000,-4.419506500000001,6.2916913,6.4712491,0.103301,-0.3785223,-0.5309332
12592,12:35:45.268000,-4.3979597,6.4209727999999995,6.4904013,0.0947489,-0.4163959,-0.5810241
12593,12:35:45.275000,-4.400353400000001,6.4975839,6.3970318,0.0947489,-0.4163959,-0.5810241
12594,12:35:45.285000,-4.426688700000001,6.6699591,6.3204203,0.0752012,-0.4542695,-0.6469975
12595,12:35:45.294000,-4.4314770999999995,6.7776933,6.385061299999999,0.032440699999999996,-0.4982518,-0.7007536
12596,12:35:45.304000,-4.412324,6.7417822,6.416184400000001,-0.009098100000000001,-0.5446774999999999,-0.7581749
12597,12:35:45.316000,-4.338107099999999,6.5670128,6.416184400000001,-0.0640759,-0.5947684,-0.8143744
12598,12:35:45.331000,-4.2974076,6.3970318,6.4975839,-0.1373797,-0.6497461999999999,-0.8583566999999999
12599,12:35:45.337000,-4.2519193,6.2940855,6.7369938,-0.28520890000000004,-0.754815,-0.9194431999999999
12600,12:35:45.343000,-4.0771503,6.1073461,6.8734574,-0.3511823,-0.8024624,-0.9426559999999999
12601,12:35:45.361000,-3.8425286,6.1288929,7.0147095,-0.4367034000000001,-0.8281187,-0.9841949000000001
12602,12:35:45.371000,-3.7635233,6.152833900000001,7.0362558,-0.4367034000000001,-0.8281187,-0.9841949000000001
12603,12:35:45.382000,-3.6629709999999998,6.2581739,6.9357042,-0.524668,-0.8024624,-1.0110728999999998
12604,12:35:45.391000,-3.5672072999999997,6.0690403,6.983585799999999,-0.524668,-0.8024624,-1.0110728999999998
12605,12:35:45.400000,-3.4379258000000004,5.7242899000000005,6.8638811,-0.7421358,-0.7670323,-1.0245119
12606,12:35:45.411000,-3.1745751,5.080277400000001,6.811211099999999,-0.7421358,-0.7670323,-1.0245119
12607,12:35:45.420000,-2.8202484,4.4841470999999995,6.7848759,-0.9241735000000001,-0.7939103,-0.9793079
12608,12:35:45.433000,-2.4515569,4.1250324,6.6148949,-1.1465281999999999,-0.8696575000000001,-0.8681306000000001
