,time,ax,ay,az,wx,wy,wz
36426,14:09:56.008000,-5.4705157,-2.4874685000000003,7.634780900000001,-0.08606710000000001,-0.1170722,0.4049115
36427,14:09:56.017000,-5.3364458,-2.5305624,7.452829400000001,-0.1373797,-0.0596509,0.2045479
36428,14:09:56.027000,-5.4202394,-2.7412429,7.5749283,-0.1373797,-0.0596509,0.2045479
36429,14:09:56.036000,-5.362781,-2.8968594,7.565352000000001,-0.11172339999999999,0.027091900000000006,0.1324659
36430,14:09:56.048000,-5.312504799999999,-3.0740228,7.4887409,-0.0298675,0.1736994,0.011514700000000001
36431,14:09:56.055000,-5.384327900000001,-3.1242987999999996,7.4384651,-0.0298675,0.1736994,0.011514700000000001
36432,14:09:56.066000,-5.422633599999999,-2.9758646,7.17272,0.0067843999999999995,0.2457815,-0.0202503
36433,14:09:56.076000,-5.539944599999999,-2.7747604999999997,7.3762178,0.058097,0.2873203,-0.04101969999999999
36434,14:09:56.085000,-5.6045852,-2.5521092,7.3163662,0.10452269999999998,0.3141983,-0.058123900000000006
36435,14:09:56.098000,-5.6955609,-2.4683158,7.1822957999999995,0.09963580000000001,0.3117548,-0.0617891
36436,14:09:56.104000,-5.5662794,-2.4395863999999996,7.3091836,0.06298390000000001,0.29342890000000005,-0.0825585
36437,14:09:56.115000,-5.4489684,-2.640691,7.402553599999999,0.0190017,0.2726595,-0.1155452
36438,14:09:56.123000,-5.4417862999999995,-2.7795486,7.3403072,0.0190017,0.2726595,-0.1155452
36439,14:09:56.133000,-5.5207915000000005,-2.8154602000000004,7.2421484,-0.013985,0.288542,-0.1399798
36440,14:09:56.143000,-5.6907725,-2.6071734,7.2972131,-0.000546,0.31542,-0.1693013
36441,14:09:56.152000,-5.6907725,-2.7149078999999996,7.187084700000001,0.0336624,0.3325242,-0.1949576
36442,14:09:56.167000,-5.6045852,-2.8513715,6.717841099999999,-0.0176502,0.31664169999999997,-0.2426051
36443,14:09:56.172000,-5.757807700000001,-3.0883875,7.3929772,-0.0176502,0.31664169999999997,-0.2426051
36444,14:09:56.182000,-5.7099257,-2.9208004,6.586165400000001,-0.0885105,0.2286772,-0.1925142
36445,14:09:56.192000,-5.7003489,-3.0333229999999998,7.2636956999999995,-0.0885105,0.2286772,-0.1925142
36446,14:09:56.201000,-5.7075315,-2.8226426,6.8782454,-0.0885105,0.21523820000000002,-0.1607492
36447,14:09:56.213000,-5.2789874,-3.5217192,7.5988693,-0.0494152,0.17736459999999998,-0.14975360000000001
36448,14:09:56.221000,-5.7602015,-2.8585539,6.983585799999999,-0.032311,0.20912960000000003,-0.1131017
36449,14:09:56.234000,-5.855965599999999,-2.7556078,6.9692216,-0.006654600000000001,0.21279479999999998,-0.09233229999999999
36450,14:09:56.249000,-5.8966651,-3.0021996,6.875851600000001,-0.0848453,0.19080360000000002,-0.11676689999999999
36451,14:09:56.258000,-5.9086356,-3.0692346,7.0075269,-0.0848453,0.19080360000000002,-0.11676689999999999
36452,14:09:56.267000,-5.8272367,-3.1195107,6.868669500000001,-0.1276059,0.1749211,-0.1094366
36453,14:09:56.278000,-5.9038477,-3.3301911,6.9165516,-0.1789185,0.1468213,-0.0972193
36454,14:09:56.289000,-5.9301825,-3.4858077000000005,6.7082644,-0.21923560000000003,0.12238679999999999,-0.07034119999999999
36455,14:09:56.298000,-5.8823004,-3.4714432,6.7441759,-0.1850271,0.06252200000000001,0.0579404
36456,14:09:56.308000,-5.8152661,-3.2799153,6.7992406,-0.1850271,0.06252200000000001,0.0579404
36457,14:09:56.318000,-5.8463888,-3.0692346,6.8447285,-0.1398231,0.014874600000000002,0.12880070000000002
36458,14:09:56.328000,-5.8799067,-2.9662883,6.8950043,-0.14104489999999997,-0.0901942,0.2131
36459,14:09:56.337000,-5.8942709,-3.0237467000000002,6.820787400000001,-0.14104489999999997,-0.0901942,0.2131
36460,14:09:56.347000,-5.7817483,-3.1889396,6.8375459,-0.2558874,-0.23680170000000003,0.30961669999999997
36461,14:09:56.357000,-5.784142500000001,-3.3373737,6.753752700000001,-0.2558874,-0.23680170000000003,0.30961669999999997
36462,14:09:56.367000,-5.8799067,-3.270339,6.713053200000001,-0.3010914,-0.3296531,0.38780729999999997
36463,14:09:56.379000,-5.7051377,-3.2152746,6.8183932,-0.37317340000000004,-0.5715555999999999,0.5759536999999999
36464,14:09:56.385000,-5.6668315,-3.1290869999999997,6.971615299999999,-0.37317340000000004,-0.5715555999999999,0.5759536999999999
36465,14:09:56.396000,-5.5662794,-3.0093822,6.971615299999999,-0.492903,-0.7902451,0.7579913
36466,14:09:56.405000,-5.3244753,-3.1626046000000003,7.026680000000001,-0.492903,-0.7902451,0.7579913
36467,14:09:56.415000,-5.0898538,-3.5600247000000005,7.0003443,-0.6370670999999999,-0.9111964,0.836182
36468,14:09:56.424000,-5.2718053,-3.8975928,6.993162599999999,-0.6370670999999999,-0.9111964,0.836182
36469,14:09:56.433000,-5.0563364,-3.8473167,7.357065700000001,-0.6896014,-0.9002008,0.9033771
36470,14:09:56.444000,-5.4082689,-3.2056982999999994,7.148778900000001,-0.8105526,-0.9588438,0.913151
36471,14:09:56.452000,-6.4018202,-2.5904147999999996,7.115261599999999,-0.8105526,-0.9588438,0.913151
36472,14:09:56.463000,-6.705870599999999,-2.4036752999999997,6.8447285,-0.6786058,-0.8977573,0.9962285
36473,14:09:56.472000,-6.1552280999999995,-2.8920712,7.249331,-0.6786058,-0.8977573,0.9962285
36474,14:09:56.482000,-5.4776978,-2.7316667999999997,7.0362558,-0.6896014,-0.9466264999999999,0.9730156999999999
36475,14:09:56.495000,-5.384327900000001,-2.4874685000000003,7.4576173,-0.7751224,-0.9906088,0.7921997
36476,14:09:56.501000,-5.245470500000001,-2.5904147999999996,7.6970277000000005,-0.7751224,-0.9906088,0.7921997
36477,14:09:56.513000,-5.3532052000000006,-3.3110385,8.0537481,-0.745801,-0.8256752,0.6370401
36478,14:09:56.521000,-5.33884,-3.4977782,7.4743767000000005,-0.745801,-0.8256752,0.6370401
36479,14:09:56.530000,-4.3476834,-3.6510005,7.407341499999999,-0.5356635000000001,-0.6595201,0.5930579
36480,14:09:56.543000,-4.534422900000001,-3.1889396,7.9388312999999995,-0.4037167,-0.5495644000000001,0.4611111
36481,14:09:56.550000,-4.704403900000001,-2.4659216,7.7329387999999994,-0.3194174,-0.4530478,0.35848579999999997
36482,14:09:56.562000,-5.310111,-1.8314854999999999,7.914890299999999,-0.06774110000000001,-0.1170722,0.23142600000000002
36483,14:09:56.569000,-5.362781,-2.183418,7.711391900000001,-0.06774110000000001,-0.1170722,0.23142600000000002
36484,14:09:56.579000,-4.9366317,-2.8585539,7.7401209,-0.17158810000000002,-0.0071166,-0.0055896
36485,14:09:56.589000,-4.7020102,-3.3134327000000003,7.558169400000001,-0.17158810000000002,-0.0071166,-0.0055896
36486,14:09:56.598000,-4.771439099999999,-3.5001721,7.4432529999999995,-0.21923560000000003,0.0576351,-0.1509753
36487,14:09:56.609000,-4.824109099999999,-3.7515528,7.3594593999999995,-0.21923560000000003,0.0576351,-0.1509753
36488,14:09:56.617000,-4.8576264,-3.7659172999999995,7.2684841,-0.1703664,0.080848,-0.1326494
36489,14:09:56.629000,-4.941420099999999,-3.4929900000000003,7.3786125,-0.0152067,0.0637438,-0.0104765
36490,14:09:56.636000,-5.0946422,-3.1602101,7.3714299,-0.0152067,0.0637438,-0.0104765
36491,14:09:56.647000,-5.164071099999999,-3.0141702,7.373824099999999,0.0837533,0.023426699999999998,0.0481665
36492,14:09:56.658000,-5.1712537,-3.1961217,7.335518400000001,0.0837533,0.023426699999999998,0.0481665
36493,14:09:56.665000,-5.0323954,-3.3373737,7.4384651,0.07397949999999999,-0.0083383,0.059162099999999995
36494,14:09:56.678000,-4.900720099999999,-3.2296392999999997,7.4504356,0.0776447,-0.0608726,0.1153617
36495,14:09:56.686000,-5.0156369000000005,-2.8250365,7.5270467000000005,0.0776447,-0.0608726,0.1153617
36496,14:09:56.696000,-5.764989900000001,-2.300729,7.4169178,0.0959706,-0.054764,0.12391379999999999
36497,14:09:56.704000,-5.080277400000001,-3.1362693,7.536623,0.0959706,-0.054764,0.12391379999999999
36498,14:09:56.714000,-4.723557,-3.5432663,7.4767703999999995,0.0275538,-0.1048549,0.0579404
36499,14:09:56.726000,-4.747498,-3.4690489999999996,7.517469900000001,-0.0359761,-0.12195910000000001,0.06771419999999999
36500,14:09:56.734000,-4.7738328,-3.1099343,7.6635098,-0.0359761,-0.12195910000000001,0.06771419999999999
36501,14:09:56.744000,-4.927054900000001,-2.7077258,7.627598299999999,0.0690926,-0.014446899999999999,0.0493883
36502,14:09:56.753000,-5.2047706,-2.5545032,7.6515393,0.0690926,-0.014446899999999999,0.0493883
36503,14:09:56.763000,-5.0707011,-2.6957552000000002,7.756879799999999,0.058097,0.028313599999999998,0.018844999999999997
36504,14:09:56.776000,-4.8911432999999995,-2.9519238,7.701815600000001,-0.013985,0.0722959,-0.10821480000000001
36505,14:09:56.782000,-4.8648086,-3.1314812,7.5821104,-0.013985,0.0722959,-0.10821480000000001
36506,14:09:56.792000,-4.900720099999999,-3.299068,7.517469900000001,-0.0445282,0.14071270000000002,-0.14486670000000001
36507,14:09:56.802000,-4.9869075,-3.4451079,7.3714299,-0.0445282,0.14071270000000002,-0.14486670000000001
36508,14:09:56.811000,-4.8815675,-3.5767834,7.3929772,-0.020093700000000003,0.1602604,-0.1289842
36509,14:09:56.825000,-4.8193212,-3.4498963,7.4408588,0.0788664,0.1736994,-0.0593456
36510,14:09:56.830000,-4.9366317,-3.1673927,7.486347200000001,0.0788664,0.1736994,-0.0593456
36511,14:09:56.842000,-5.216741099999999,-3.0213525000000003,7.5150762,0.20592629999999998,0.2604422,-0.0349111
36512,14:09:56.850000,-5.4202394,-2.8968594,7.455223599999999,0.20592629999999998,0.2604422,-0.0349111
36513,14:09:56.860000,-5.4633335999999995,-2.8202484,7.3163662,0.21570010000000003,0.2653291,-0.0459066
36514,14:09:56.869000,-5.3986925999999995,-2.9710765,7.2636956999999995,0.1814917,0.2641074,-0.0605674
36515,14:09:56.879000,-5.3555989,-3.0955698,7.3522773,0.1460615,0.22012510000000002,-0.06789780000000001
36516,14:09:56.892000,-5.295746299999999,-3.1745751,7.1942663,0.07397949999999999,0.139491,-0.0031460999999999998
36517,14:09:56.898000,-5.2311058,-3.2942801,7.1942663,0.07397949999999999,0.139491,-0.0031460999999999998
36518,14:09:56.909000,-5.2430763,-3.4307434999999997,7.3163662,0.0471015,0.0661872,0.0897053
36519,14:09:56.918000,-5.235894200000001,-3.2416098,7.2756662,0.0471015,0.0661872,0.0897053
36520,14:09:56.938000,-5.33884,-3.0764169999999997,7.3187599,0.09352719999999999,0.0380874,0.13002239999999998
36521,14:09:56.940000,-5.381934200000001,-2.8729186,7.3259419999999995,0.09352719999999999,0.0380874,0.13002239999999998
36522,14:09:56.958000,-5.3077168,-2.8537657000000003,7.3450952,0.0483232,-0.022999000000000002,0.1385745
36523,14:09:56.965000,-5.3747516,-2.8968594,7.278060000000001,0.0483232,-0.022999000000000002,0.1385745
36524,14:09:56.975000,-5.3244753,-2.9208004,7.400158900000001,-0.004211199999999999,-0.0938593,0.1898872
36525,14:09:56.984000,-5.295746299999999,-3.1506341,7.4336767,-0.004211199999999999,-0.0938593,0.1898872
36526,14:09:56.996000,-5.1568885,-3.3900437000000005,7.369036200000001,-0.026202299999999998,-0.1341764,0.22898249999999998
36527,14:09:57.007000,-5.0922480000000006,-3.4522904999999997,7.292425200000001,-0.032311,-0.1744935,0.3474903
36528,14:09:57.015000,-5.2215295,-3.3589206,7.3163662,-0.032311,-0.1744935,0.3474903
36529,14:09:57.025000,-5.2694116,-2.9998057,7.337912599999999,0.0593188,-0.21603229999999998,0.46599799999999997
36530,14:09:57.035000,-5.317293599999999,-2.6909671000000004,7.4264946,0.0593188,-0.21603229999999998,0.46599799999999997
36531,14:09:57.044000,-5.334052099999999,-2.6071734,7.366642,0.0910837,-0.2477973,0.5014281
36532,14:09:57.057000,-5.3723574,-2.5592916,7.4624062,0.032440699999999996,-0.33209659999999996,0.5478539000000001
36533,14:09:57.063000,-5.3364458,-2.3845222,7.409735700000001,0.032440699999999996,-0.33209659999999996,0.5478539000000001
36534,14:09:57.076000,-5.022819,-2.5161977,7.479164599999999,-0.0604107,-0.4273915,0.5588495
36535,14:09:57.083000,-5.2502584,-2.5425327,7.5964756,-0.0604107,-0.4273915,0.5588495
36536,14:09:57.092000,-5.3077168,-2.7340607999999995,7.8646145,-0.11783199999999999,-0.46893029999999997,0.5857275
36537,14:09:57.102000,-4.917479,-2.8920712,7.8215202999999995,-0.17280979999999999,-0.4884779,0.6455922
36538,14:09:57.111000,-4.457811799999999,-2.8346131000000003,8.046566,-0.14715350000000002,-0.4469391,0.6126055
36539,14:09:57.123000,-4.3357129,-2.7077258,8.1399355,-0.009098100000000001,-0.2416886,0.5099802999999999
36540,14:09:57.131000,-4.5272403,-2.4515569,8.0657187,-0.009098100000000001,-0.2416886,0.5099802999999999
36541,14:09:57.141000,-4.8408675,-2.0876541,7.9938955,0.015336500000000001,-0.09263760000000001,0.5014281
36542,14:09:57.150000,-5.142523799999999,-1.7165686999999998,7.946013499999999,0.042214499999999995,0.0405309,0.44645039999999997
36543,14:09:57.160000,-5.350810500000001,-1.6662928,7.764061900000001,0.0532101,0.126052,0.36092929999999995
36544,14:09:57.172000,-5.2789874,-1.7644508,7.5916872,-0.1031713,0.12116500000000001,0.2546388
36545,14:09:57.180000,-5.33884,-1.9966784,7.594080900000001,-0.1031713,0.12116500000000001,0.2546388
36546,14:09:57.192000,-5.2981405,-2.449163,7.419312,-0.253444,0.049083,0.24608670000000002
36547,14:09:57.199000,-5.314899,-2.983047,7.3977652,-0.402495,-0.020555599999999997,0.25097359999999996
36548,14:09:57.208000,-5.209559,-3.2320333,7.4312825,-0.5087855,-0.08408550000000001,0.2741865
36549,14:09:57.221000,-5.178435299999999,-3.299068,7.2804546000000006,-0.5258896,-0.1353981,0.30961669999999997
36550,14:09:57.228000,-5.199982599999999,-3.1769691000000004,7.3403072,-0.474577,-0.14639370000000002,0.3462685
36551,14:09:57.240000,-5.2478647,-2.8944654,7.4576173,-0.2913176,-0.15983270000000002,0.407355
36552,14:09:57.248000,-5.2622290000000005,-2.5568974,7.589293,-0.2913176,-0.15983270000000002,0.407355
36553,14:09:57.257000,-5.3077168,-2.1714474999999998,7.6252046,-0.1654795,-0.14639370000000002,0.4085767
36554,14:09:57.266000,-5.310111,-1.8745793999999998,7.8143387,-0.1654795,-0.14639370000000002,0.4085767
36555,14:09:57.276000,-5.2694116,-1.7859976000000002,7.8717966,-0.1752533,-0.1488372,0.40002459999999995
36556,14:09:57.288000,-5.2382879,-1.9990726000000003,7.713786099999999,-0.3414085,-0.16471960000000002,0.362151
36557,14:09:57.296000,-5.1832242,-2.0900483,7.766456599999999,-0.3414085,-0.16471960000000002,0.362151
36558,14:09:57.306000,-5.0946422,-2.327064,7.776032400000001,-0.5393286999999999,-0.1915977,0.3230557
36559,14:09:57.316000,-5.144918,-2.6622376,7.5485935,-0.5393286999999999,-0.1915977,0.3230557
36560,14:09:57.325000,-5.1808295,-2.9255888,7.543805099999999,-0.610189,-0.190376,0.32427740000000005
36561,14:09:57.340000,-5.1090064,-3.0596582999999997,7.560564,-0.687158,-0.1928194,0.3206122
36562,14:09:57.344000,-5.0252137,-3.2080922000000003,7.455223599999999,-0.687158,-0.1928194,0.3206122
36563,14:09:57.359000,-5.0060606,-3.006988,7.766456599999999,-0.5955282,-0.1488372,0.3316078
36564,14:09:57.364000,-4.7403154,-2.6502673999999997,7.876585,-0.5344416999999999,-0.1427285,0.3572641
36565,14:09:57.375000,-4.577516999999999,-2.9423472999999998,7.7185745,-0.5002333,-0.10974180000000001,0.3731466
36566,14:09:57.384000,-5.08746,-3.1889396,7.5414109,-0.49412470000000003,-0.0914159,0.3792552
36567,14:09:57.392000,-5.1353421,-3.1793633,7.3139715,-0.41104709999999994,-0.022999000000000002,0.3682597
36568,14:09:57.401000,-5.1951947,-3.2487918999999996,7.3163662,-0.41104709999999994,-0.022999000000000002,0.3682597
36569,14:09:57.411000,-5.063519,-3.0692346,7.483952499999999,-0.343852,-0.019333799999999998,0.3841422
36570,14:09:57.422000,-4.8169265,-2.8801007000000003,7.536623,-0.2070183,-0.0242208,0.3719248
36571,14:09:57.432000,-4.6182165,-3.5097487000000003,7.4264946,-0.2070183,-0.0242208,0.3719248
36572,14:09:57.441000,-5.226317400000001,-2.2672114,8.1662712,-0.1911358,-0.0034514000000000003,0.35970759999999996
36573,14:09:57.453000,-5.209559,-2.0086489,7.6108398,-0.2143486,-0.036438099999999994,0.3926943
36574,14:09:57.461000,-5.1185832,-2.6526616,7.424099900000001,-0.1679229,0.0002138,0.4122419
36575,14:09:57.471000,-4.9294496,-2.473104,7.7401209,-0.2143486,0.094287,0.15812220000000002
36576,14:09:57.480000,-5.0132432,-2.5497153,7.946013499999999,-0.2143486,0.094287,0.15812220000000002
36577,14:09:57.490000,-5.0491543,-2.7508194,7.7161802999999995,-0.22778769999999998,0.12483019999999999,0.14223970000000002
36578,14:09:57.503000,-5.0156369000000005,-2.837007,7.6228104000000005,-0.24244839999999998,0.18347320000000003,0.11413989999999999
36579,14:09:57.509000,-5.142523799999999,-2.8896773,7.536623,-0.22656590000000001,0.23722929999999998,0.053053499999999996
36580,14:09:57.520000,-5.2406821,-3.0237467000000002,7.4145240999999995,-0.149597,0.3190852,0.013958100000000001
36581,14:09:57.528000,-5.3867221,-3.1482398999999996,7.1799021,-0.149597,0.3190852,0.013958100000000001
36582,14:09:57.540000,-5.456151,-3.1219049,7.165537400000001,-0.06285419999999999,0.3422981,-0.0055896
36583,14:09:57.547000,-5.3292642,-3.1745751,7.232572599999999,-0.06285419999999999,0.3422981,-0.0055896
36584,14:09:57.557000,-5.3771458,-3.0357172,7.237360499999999,-0.020093700000000003,0.3361894,-0.0116982
36585,14:09:57.575000,-5.5638857,-2.837007,7.1392026,0.0018975,0.32275040000000005,-0.0104765
36586,14:09:57.586000,-5.626132,-2.8178542,7.1056852,-0.0176502,0.23112070000000004,-0.0104765
36587,14:09:57.595000,-5.6189499000000005,-2.7125139,7.239754700000001,-0.0176502,0.23112070000000004,-0.0104765
36588,14:09:57.604000,-5.5710678,-2.7196963,7.321154099999999,-0.0335327,0.198134,-0.0104765
36589,14:09:57.615000,-5.7171078,-2.3917048,7.0841379,-0.055523800000000005,0.16759079999999998,-0.0288024
36590,14:09:57.624000,-5.3412347,-2.8896773,7.4384651,-0.1789185,0.0649655,-0.0752281
36591,14:09:57.635000,-5.3747516,-4.0484209,7.2062368,-0.1789185,0.0649655,-0.0752281
36592,14:09:57.645000,-5.3412347,-3.3876498,7.2062368,-0.23389629999999997,0.023426699999999998,-0.0068113
36593,14:09:57.654000,-5.4250278,-2.983047,7.2972131,-0.23389629999999997,0.023426699999999998,-0.0068113
36594,14:09:57.664000,-5.602191,-2.8968594,7.302001,-0.12882760000000001,0.0955087,0.0017408
36595,14:09:57.674000,-5.5160035999999995,-2.8729186,7.2828484,-0.12394069999999999,0.1309389,-0.019028599999999996
36596,14:09:57.684000,-5.5160035999999995,-2.7173021,7.357065700000001,-0.1251624,0.1419345,-0.043463199999999994
36597,14:09:57.693000,-5.5183973,-2.7053316,7.3594593999999995,-0.1251624,0.1419345,-0.043463199999999994
36598,14:09:57.704000,-5.5638857,-2.7747604999999997,7.2565136,-0.1654795,0.1724777,-0.1131017
36599,14:09:57.712000,-5.5495209999999995,-2.9399533,7.13202,-0.1654795,0.1724777,-0.1131017
36600,14:09:57.722000,-5.4776978,-3.1075404,7.108078999999999,-0.20579650000000002,0.1749211,-0.14242320000000003
36601,14:09:57.734000,-5.4489684,-3.2487918999999996,7.17272,-0.23389629999999997,0.1736994,-0.16319270000000002
36602,14:09:57.742000,-5.3555989,-3.3708911,7.218207400000001,-0.23023110000000002,0.184695,-0.1925142
36603,14:09:57.753000,-5.3891163,-3.4546845,7.218207400000001,-0.14348829999999999,0.26777259999999997,-0.25604410000000005
36604,14:09:57.761000,-5.6189499000000005,-3.2751269,7.0458326,-0.14348829999999999,0.26777259999999997,-0.25604410000000005
36605,14:09:57.770000,-5.7697778,-3.1219049,7.081744199999999,0.0177799,0.38750209999999996,-0.3293478
36606,14:09:57.780000,-5.8942709,-2.983047,6.8926105,0.0177799,0.38750209999999996,-0.3293478
36607,14:09:57.790000,-5.8655419,-3.102752,6.7417822,0.061762199999999996,0.40460630000000003,-0.351339
36608,14:09:57.801000,-5.7865367,-3.4905961000000003,6.710659,0.0409928,0.3496284,-0.3403434
36609,14:09:57.809000,-5.743443,-3.6126949999999995,6.5981359,0.0409928,0.3496284,-0.3403434
36610,14:09:57.819000,-5.8128719,-3.5696013,6.452096,0.045879699999999995,0.2140165,-0.2914743
36611,14:09:57.829000,-5.9038477,-3.5169311000000003,6.5789833,0.045879699999999995,0.2140165,-0.2914743
36612,14:09:57.838000,-5.8511777,-3.3206151,6.643623799999999,0.043436300000000004,0.12360850000000001,-0.26093099999999997
36613,14:09:57.850000,-5.7625957,-3.1985159,6.7992406,-0.010319799999999999,-0.036438099999999994,-0.215727
36614,14:09:57.858000,-5.7171078,-3.3852558,6.9117632,-0.010319799999999999,-0.036438099999999994,-0.215727
36615,14:09:57.870000,-5.6979551,-3.5576307999999996,6.9021864,-0.1214972,-0.15983270000000002,-0.1900707
36616,14:09:57.877000,-5.6237378,-3.6773357000000004,6.8830342,-0.1214972,-0.15983270000000002,-0.1900707
36617,14:09:57.887000,-5.602191,-3.7012767999999996,6.7992406,-0.10561469999999999,-0.1806021,-0.1815186
36618,14:09:57.896000,-5.5638857,-3.6414242,6.8327579,-0.056745500000000004,-0.190376,-0.18274029999999997
36619,14:09:57.906000,-5.5423384,-3.5600247000000005,6.9692216,0.0080061,-0.1989281,-0.1900707
36620,14:09:57.917000,-5.5447326,-3.1913337999999998,6.7609348,0.0788664,-0.21114539999999998,-0.1949576
36621,14:09:57.926000,-5.5471268,-2.0349839,6.7585410999999995,0.12651389999999998,-0.2258061,-0.1949576
36622,14:09:57.936000,-5.4417862999999995,-2.1666594,7.819126600000001,0.0507666,-0.3296531,-0.21328360000000002
36623,14:09:57.944000,-5.334052099999999,-2.8489776,7.8382797,0.0507666,-0.3296531,-0.21328360000000002
36624,14:09:57.954000,-5.097035900000001,-3.3230089999999994,7.4624062,-0.1557056,-0.3760788,-0.20961839999999998
36625,14:09:57.965000,-4.941420099999999,-3.9933567,7.5533814,-0.32552600000000004,-0.31499240000000006,-0.2059532
36626,14:09:57.974000,-4.9198732000000005,-4.2878308,7.366642,-0.40616009999999997,-0.24046689999999998,-0.20717489999999997
36627,14:09:57.985000,-5.0156369000000005,-3.9095633000000003,7.232572599999999,-0.2827655,0.0002138,-0.23527470000000003
36628,14:09:57.994000,-5.1137948,-3.4211669000000002,7.3714299,-0.2827655,0.0002138,-0.23527470000000003
36629,14:09:58.003000,-5.1928,-3.1506341,7.455223599999999,-0.1520405,0.11139120000000001,-0.2548223
36630,14:09:58.015000,-5.3053231,-3.0021996,7.3929772,-0.0946192,0.1895819,-0.27314829999999996
36631,14:09:58.023000,-5.3723574,-3.0692346,7.388188400000001,-0.090954,0.2579987,-0.2951394
36632,14:09:58.034000,-5.427422,-3.3469501000000004,7.1894784,-0.1972444,0.31542,-0.31957399999999997
36633,14:09:58.042000,-5.4824858,-3.5887538999999995,6.9285220999999995,-0.1972444,0.31542,-0.31957399999999997
36634,14:09:58.051000,-5.5926147,-3.7276117999999996,6.794452199999999,-0.266883,0.3190852,-0.3220175
36635,14:09:58.061000,-5.767384099999999,-3.8544991000000004,6.6148949,-0.3059784,0.29709409999999997,-0.31346540000000006
36636,14:09:58.071000,-5.853571400000001,-3.9191399,6.456884400000001,-0.3426302,0.2470032,-0.2988046
36637,14:09:58.082000,-5.3460225999999995,-3.8616812000000005,6.6771417,-0.4073819,0.0955087,-0.24993539999999997
36638,14:09:58.091000,-5.3412347,-3.5001721,6.930915799999999,-0.45625109999999997,0.0185398,-0.2511572
36639,14:09:58.110000,-6.2126861,-3.5528426,5.9253945,-0.45625109999999997,0.0185398,-0.2511572
36640,14:09:58.120000,28.9901428,-7.6706924,22.892372100000003,-0.7225881,-0.6729590999999999,-0.2328312
36641,14:09:58.130000,-6.140863400000001,-3.3110385,7.148778900000001,-0.812996,-0.9124181,-0.143645
36642,14:09:58.139000,-4.7881975,-3.1506341,7.373824099999999,-0.812996,-0.9124181,-0.143645
36643,14:09:58.150000,-5.0276074,-3.5743894999999997,7.2014489,-0.9534950000000001,-0.3711919,-0.1778534
36644,14:09:58.158000,-5.4705157,-4.6158223,6.983585799999999,-0.9534950000000001,-0.3711919,-0.1778534
36645,14:09:58.168000,-4.950995900000001,-4.9725428,6.693900099999999,-1.1282023,-0.39318309999999995,-0.143645
36646,14:09:58.177000,-4.9916959,-5.5519152,6.3371797,-1.1282023,-0.39318309999999995,-0.143645
36647,14:09:58.186000,-4.630187,-5.5279741,6.1241045,-1.1074328000000002,-0.42494799999999994,-0.1033279
36648,14:09:58.198000,-4.7139807000000005,-6.0905871,5.7865367,-0.8582001,-0.39807,-0.1326494
36649,14:09:58.206000,-4.8624144,-6.4616723,5.6069794,-0.8582001,-0.39807,-0.1326494
36650,14:09:58.216000,-4.752286,-6.3802729000000005,5.597403,-0.41715569999999996,-0.23435820000000004,-0.1326494
36651,14:09:58.225000,-4.7067981,-5.9373651,5.9493356,-0.41715569999999996,-0.23435820000000004,-0.1326494
36652,14:09:58.235000,-4.6900395999999995,-5.312504799999999,6.5215249,-0.16425770000000003,-0.1537241,-0.0935541
36653,14:09:58.247000,-5.147312599999999,-4.613428599999999,6.792058,0.25846060000000004,-0.07186820000000001,-0.0825585
36654,14:09:58.255000,-5.3005347,-4.271071900000001,6.739388000000001,0.25846060000000004,-0.07186820000000001,-0.0825585
36655,14:09:58.265000,-5.413057299999999,-4.096303,6.6699591,0.24379989999999999,-0.14028510000000002,-0.03857619999999999
36656,14:09:58.275000,-5.48488,-2.6789966,7.4384651,0.24379989999999999,-0.14028510000000002,-0.03857619999999999
36657,14:09:58.284000,-5.0060606,-3.7659172999999995,6.978797900000001,0.1643875,-0.1952629,-0.0507935
36658,14:09:58.296000,-5.0898538,-4.208825599999999,6.8519106,0.044657999999999996,-0.20625839999999998,-0.1412015
36659,14:09:58.303000,-4.0891209,-7.237360499999999,3.8592873,-0.20946170000000003,-0.2099236,-0.3440086
36660,14:09:58.315000,-5.3412347,-4.1585493,5.8128719,-0.17280979999999999,-0.3711919,-0.1766317
36661,14:09:58.323000,-5.082671599999999,-4.3668360999999996,7.3810066999999995,-0.17280979999999999,-0.3711919,-0.1766317
36662,14:09:58.333000,-4.613428599999999,-4.7115865,6.5334954000000005,-0.0701846,-0.5568948,-0.143645
36663,14:09:58.343000,-4.9126905999999995,-4.9246612,6.746570599999999,-0.0701846,-0.5568948,-0.143645
36664,14:09:58.352000,-4.488935,-4.6972213,6.6819296,-0.1679229,-0.587438,-0.13753629999999997
36665,14:09:58.364000,-4.4817529,-4.8672032,7.0961084,-0.1679229,-0.587438,-0.13753629999999997
36666,14:09:58.371000,-4.3812003,-5.1808295,6.8950043,-0.14226660000000002,-0.5776642,-0.1668578
36667,14:09:58.382000,-4.1202440000000005,-5.147312599999999,6.746570599999999,-0.08606710000000001,-0.5068039000000001,-0.215727
36668,14:09:58.391000,-4.2591014000000005,-5.1305537,6.9141569,-0.08606710000000001,-0.5068039000000001,-0.215727
36669,14:09:58.400000,-4.3237424,-4.984513300000001,6.9476743,-0.032311,-0.45915649999999997,-0.24627020000000002
36670,14:09:58.413000,-4.208825599999999,-4.8600205999999995,7.0242853,0.0690926,-0.39929169999999997,-0.2890308
36671,14:09:58.419000,-4.2854371,-4.922267,6.8997927,0.0690926,-0.39929169999999997,-0.2890308
36672,14:09:58.433000,-4.290225,-4.9797254,7.2972131,0.07397949999999999,-0.3956265,-0.3171305
36673,14:09:58.439000,-4.0675735,-5.2526526,7.1439905,0.07397949999999999,-0.3956265,-0.3171305
36674,14:09:58.449000,-3.8521049,-5.6644373,7.2110256999999995,0.0336624,-0.4750389,-0.25604410000000005
36675,14:09:58.467000,-3.8473167,-5.4106631,7.2756662,0.0092278,-0.5129125,-0.11065830000000001
36676,14:09:58.469000,-3.5360837,-5.654861,7.1511731,0.0092278,-0.5129125,-0.11065830000000001
36677,14:09:58.481000,-3.5839657999999996,-5.669226200000001,7.2110256999999995,0.0348842,-0.5104691,-0.0593456
36678,14:09:58.486000,-3.610301,-5.738654599999999,7.0099211,0.1814917,-0.4237263,0.034727499999999994
36679,14:09:58.496000,-3.7874641000000002,-5.6740141,6.909369,0.1814917,-0.4237263,0.034727499999999994
36680,14:09:58.505000,-4.0196919,-5.5758562000000005,6.849516400000001,0.2853387,-0.3699702,0.06771419999999999
36681,14:09:58.516000,-4.1417909,-5.3723574,6.7872701,0.42461590000000005,-0.3333183,0.0884836
36682,14:09:58.531000,-4.235160400000001,-5.0132432,6.734600099999999,0.6714051999999999,-0.3540877,0.1446832
36683,14:09:58.536000,-4.2806487,-4.9725428,6.8830342,0.7752522,-0.4005134,0.172783
36684,14:09:58.548000,-4.026874100000001,-4.9869075,7.3235478,0.7752522,-0.4005134,0.172783
36685,14:09:58.556000,-3.6964886,-4.958178500000001,7.3977652,0.8778775,-0.4896997,0.1923306
36686,14:09:58.575000,-3.2200627,-5.0323954,7.7042098,0.9377421999999999,-0.5568948,0.22531729999999997
36687,14:09:58.584000,-3.1482398999999996,-4.9773316,7.771244500000001,0.9719507,-0.5764425,0.36459450000000004
36688,14:09:58.597000,-3.2823095,-4.3141661,7.730544999999999,0.907199,-0.4310567,0.4562242
36689,14:09:58.604000,-3.5432663,-5.144918,7.3067894,0.907199,-0.4310567,0.4562242
36690,14:09:58.614000,-3.6869121,-4.352471400000001,7.9244671,0.6591878999999999,-0.2600145,0.5783971
36691,14:09:58.623000,-3.4786254999999997,-5.2382879,7.7257565999999995,0.6591878999999999,-0.2600145,0.5783971
36692,14:09:58.633000,-3.6701536,-4.3333187,7.649145599999999,0.6176491,-0.20503670000000002,0.5588495
36693,14:09:58.648000,-2.8298247,-5.513609400000001,9.068845699999999,0.7972434,-0.1634979,0.5564060000000001
36694,14:09:58.652000,-5.853571400000001,-4.4697824,7.9651666,0.7972434,-0.1634979,0.5564060000000001
36695,14:09:58.662000,-3.9765980000000005,-3.6031184,8.499051099999999,0.9743940999999999,-0.10607660000000001,0.2167652
36696,14:09:58.672000,-4.0915146,-3.4331373999999997,7.5007114,0.9743940999999999,-0.10607660000000001,0.2167652
36697,14:09:58.682000,-4.4147182,-3.3900437000000005,8.063324900000001,0.8778775,-0.217254,0.5197541
36698,14:09:58.693000,-4.5392108,-2.8777068,7.6635098,0.8180126999999999,-0.2893361,0.6003881999999999
36699,14:09:58.701000,-4.776227,-3.4570785,7.5222583,0.7495959,-0.2514624,0.5649581
36700,14:09:58.712000,-3.9191399,-3.2200627,8.9036531,0.4001813,-0.31865759999999993,0.6626964
36701,14:09:58.719000,-5.4968505,-2.7508194,3.0237467000000002,0.4001813,-0.31865759999999993,0.6626964
36702,14:09:58.729000,-5.1377358,-3.5360837,4.7283449,-1.9797478,0.6220741,0.5686232
36703,14:09:58.739000,-5.9996114,-3.5696013,5.633314599999999,-1.9797478,0.6220741,0.5686232
36704,14:09:58.749000,-6.4880075,-6.282115,9.1454573,-2.3169451000000003,-0.2893361,0.7286698
36705,14:09:58.762000,-5.2765937,-7.5414109,9.195733099999998,-1.1721846000000002,-0.5935467,0.0738229
36706,14:09:58.769000,-4.4338708,-6.9117632,7.8981318,-1.1721846000000002,-0.5935467,0.0738229
36707,14:09:58.778000,-5.6428905,-5.796113,6.7298117,-0.7335837,-0.1830456,0.5331931
36708,14:09:58.789000,-5.9493356,-6.2797208,5.0898538,-0.7335837,-0.1830456,0.5331931
36709,14:09:58.798000,-5.5471268,-6.823181599999999,5.0946422,-1.1819583999999999,0.0478613,0.1947741
36710,14:09:58.809000,-5.4944562999999995,-7.4408588,5.2406821,-1.134311,-0.0046731,0.015179900000000001
36711,14:09:58.816000,-5.7314725,-7.804761900000001,5.1137948,-1.134311,-0.0046731,0.015179900000000001
36712,14:09:58.828000,-5.4705157,-7.9938955,5.2550468,-0.7201446,0.0698524,-0.396543
36713,14:09:58.836000,-5.2335,-7.708998200000001,5.018031099999999,-0.7201446,0.0698524,-0.396543
36714,14:09:58.846000,-4.900720099999999,-7.634780900000001,4.9653611,-0.5600980999999999,0.1761429,-0.6286716
36715,14:09:58.858000,-4.4745703,-7.469587799999999,5.209559,-0.48435079999999997,0.2579987,-0.8388091000000001
36716,14:09:58.865000,-4.043633,-7.3115773,5.6428905,-0.40616009999999997,0.3215287,-1.0684941000000001
36717,14:09:58.877000,-3.7515528,-7.2062368,5.8128719,-0.032311,0.5084532,-1.443565
36718,14:09:58.885000,-3.1314812,-7.3283366999999995,6.040310900000001,-0.032311,0.5084532,-1.443565
36719,14:09:58.896000,-2.183418,-7.3450952,6.2725387,0.23036089999999998,0.7002648,-1.6500373
36720,14:09:58.903000,-1.4556118999999998,-7.1918726,7.0745621,0.23036089999999998,0.7002648,-1.6500373
36721,14:09:58.913000,-1.1707143,-6.5981359,8.2740059,0.4966979,0.8493158000000002,-1.7526627000000001
36722,14:09:58.930000,-0.9983392,-5.8272367,8.961112,1.1588752,1.1474178,-1.9469177
36723,14:09:58.935000,-1.2066257,-5.1928,9.506965600000001,1.3738996,1.2549299999999999,-1.9933433999999997
36724,14:09:58.947000,-1.7476921000000003,-4.479359099999999,9.528513,1.5058464,1.3196816,-1.9982302
36725,14:09:58.955000,-2.0110431,-3.9263220000000003,9.200521499999999,1.5070682,1.3270121000000001,-1.9884563999999998
36726,14:09:58.964000,-1.5944698,-3.9287159,9.008994099999999,1.4093298,1.3074643999999997,-2.0031173
36727,14:09:58.976000,-1.1563497999999999,-4.156155600000001,8.783947900000001,1.2834916,1.2585952,-2.0910816000000003
36728,14:09:58.980000,-1.0581916999999998,-3.978992,8.7552195,1.2834916,1.2585952,-2.0910816000000003
36729,14:09:58.990000,-1.2162021,-3.5360837,8.8797121,1.1515448,1.2011738,-2.1643852999999997
36730,14:09:59,-1.5370114,-3.0931754000000002,8.7959194,1.0794629,1.151083,-2.1631637
36731,14:09:59.010000,-1.8219091,-2.6119618,8.5636911,1.0489196,1.0899966,-2.0984119999999997
36732,14:09:59.021000,-1.9655551,-2.2336943,8.6474848,1.0342588,1.0325751,-2.0275519
36733,14:09:59.030000,-2.0708954,-2.2839704,8.9252005,1.0147111,0.9397238000000001,-1.9151527
36734,14:09:59.042000,-2.327064,-1.8338796000000002,9.011387800000001,1.0538065,0.8089987,-1.7917578999999997
36735,14:09:59.050000,-2.6359026,-1.8410618000000003,9.3537436,1.0623586,0.7124821,-1.6744720000000002
36736,14:09:59.059000,-3.0165646,-2.4419807999999996,9.3274088,0.9157511,0.5524355,-1.3922523999999998
36737,14:09:59.069000,-3.102752,-3.4666550000000003,8.7288837,0.9157511,0.5524355,-1.3922523999999998
36738,14:09:59.078000,-3.7419762999999997,-0.13406949999999998,8.721701600000001,0.8241214,0.39849759999999995,-1.0636072
36739,14:09:59.097000,-3.7036707000000004,-2.4563452999999997,8.429621699999998,0.8241214,0.39849759999999995,-1.0636072
36740,14:09:59.108000,-4.1465788,-2.8274305,8.2620354,0.3733032,0.3496284,-0.9121128000000001
36741,14:09:59.118000,-4.2543135,-2.6646321,8.3386459,0.3733032,0.3496284,-0.9121128000000001
36742,14:09:59.127000,-4.1824902999999996,-3.0931754000000002,8.532568,0.3452035,0.3386329,-0.8656870999999999
36743,14:09:59.139000,-4.3021955,-3.7515528,8.3290691,0.3708597,0.32397209999999993,-0.8302569
36744,14:09:59.146000,-4.6589160000000005,-4.055603,8.048959700000001,0.31466020000000006,0.301981,-0.7972701999999999
36745,14:09:59.157000,-4.9318433,-3.8616812000000005,7.8789792,0.34153829999999996,0.29709409999999997,-0.66288
36746,14:09:59.166000,-4.8121386,-3.6677592000000003,7.6036577,0.34153829999999996,0.29709409999999997,-0.66288
36747,14:09:59.175000,-4.575122400000001,-3.3565266000000005,7.1942663,0.43683310000000003,0.256777,-0.6225629
36748,14:09:59.185000,-4.3405008,-3.3038561,7.0506210000000005,0.5321279999999999,0.2017992,-0.5969066
36749,14:09:59.195000,-3.8999867,-3.2559742999999997,7.0362558,0.6042101,0.15781689999999998,-0.5688068000000001
36750,14:09:59.206000,-3.7635233,-2.9782588,7.0290742,0.6335316,0.1028391,-0.50039
36751,14:09:59.215000,-3.7539468,-2.6885729,7.292425200000001,0.6335316,0.1028391,-0.50039
36752,14:09:59.224000,-3.3876498,-2.7771543999999997,7.1272321,0.5736668,0.13582579999999997,-0.39776469999999997
36753,14:09:59.234000,-3.3301911,-3.4211669000000002,6.672352799999999,0.4453852,0.1932471,-0.2817004
36754,14:09:59.243000,-3.9335042999999996,-3.6486065,6.3180265,0.2987777,0.29342890000000005,-0.1485319
36755,14:09:59.257000,-4.8839616999999995,-3.5911478999999997,6.9117632,0.2963343,0.5536573,0.23020429999999997
36756,14:09:59.263000,-5.889483,-3.9119572999999996,7.656328200000001,0.2963343,0.5536573,0.23020429999999997
36757,14:09:59.273000,-7.6587219,-3.636636,8.1734533,0.9059771999999999,0.7503557,0.8190778000000001
36758,14:09:59.282000,-9.2316446,-1.211414,10.191678,0.9059771999999999,0.7503557,0.8190778000000001
36759,14:09:59.292000,-8.6905785,3.1865456,11.0248251,1.7941745999999998,0.7405819,1.3224303999999998
36760,14:09:59.305000,-7.3594593999999995,3.6533947,9.382473,2.4954472,0.5231140000000001,1.6437452000000001
36761,14:09:59.311000,-6.8973985,1.7740271,7.778427099999999,1.9701036,0.38383690000000004,1.495916
36762,14:09:59.324000,-6.8734574,-1.1850789,6.9596448,-0.5637633000000001,0.022205000000000003,1.3138783
36763,14:09:59.330000,-5.6045852,-4.5176644,6.6316533,-0.5637633000000001,0.022205000000000003,1.3138783
36764,14:09:59.342000,-4.1441851000000005,-6.5023718,6.849516400000001,-1.2283841,-0.0828638,1.0389892
36765,14:09:59.350000,-4.2519193,-6.3371797,6.875851600000001,-1.2577056,-0.0706465,0.6969048000000001
36766,14:09:59.360000,-3.8114052000000003,-5.539944599999999,7.1535668,-0.7531313000000001,0.1297171,0.5686232
36767,14:09:59.373000,-3.2535803,-4.374018700000001,6.966827400000001,0.6213143,0.5438834,0.5698449999999999
36768,14:09:59.379000,-3.5265076,-2.6335083999999997,7.8861612999999995,0.6213143,0.5438834,0.5698449999999999
36769,14:09:59.390000,-2.9088298999999997,-2.0541368,8.6474848,1.1833098,0.4925708,0.380477
36770,14:09:59.398000,-1.7955738999999997,-2.6766026000000003,9.7511644,1.1833098,0.4925708,0.380477
36771,14:09:59.408000,-1.4819472,-3.0883875,10.1533728,0.6909529000000001,0.16636900000000002,0.26807790000000004
36772,14:09:59.418000,-0.7421706,-3.5767834,10.464606300000002,0.6909529000000001,0.16636900000000002,0.26807790000000004
36773,14:09:59.427000,-2.4635274,-3.3732852999999996,9.5237246,0.38063359999999996,0.29709409999999997,0.38902909999999996
36774,14:09:59.438000,-3.5169311000000003,-3.5241132000000004,9.0520868,-0.3365216,0.4388147,0.8117474
36775,14:09:59.447000,-3.7539468,-3.2870975,7.536623,-0.3365216,0.4388147,0.8117474
36776,14:09:59.457000,-4.8719912,-3.4235613,7.6850572,-1.0182467,0.4925708,0.9754591999999999
36777,14:09:59.465000,-5.5710678,-2.2360882999999996,8.0369892,-1.0182467,0.4925708,0.9754591999999999
36778,14:09:59.476000,-5.7218962,-1.5226468,6.4497018,-1.2173885,0.47791000000000006,1.0121110999999998
36779,14:09:59.491000,-5.9517293,-2.1929946,7.2876363,-1.3077965,0.45225370000000004,0.9656853000000001
36780,14:09:59.495000,-5.784142500000001,-2.0086489,7.6036577,-1.3077965,0.45225370000000004,0.9656853000000001
36781,14:09:59.505000,-5.5782499,-2.2911525,7.668298700000001,-0.913178,0.4681362,0.6639181
36782,14:09:59.515000,-5.3771458,-2.4276164000000002,8.0274134,-0.913178,0.4681362,0.6639181
36783,14:09:59.524000,-5.0060606,-2.305517,7.9436197,-0.5857544,0.6232958000000001,0.5698449999999999
36784,14:09:59.537000,-5.1497064,-2.300729,8.020231200000001,-0.20335309999999998,0.8114422,0.4867674
36785,14:09:59.543000,-5.0922480000000006,-2.3150935,8.221335400000001,0.11796179999999999,0.9995885,0.43911999999999995
36786,14:09:59.557000,-5.2526526,-2.5114095,7.8334908,0.2596824,1.2109478,0.3768118
36787,14:09:59.563000,-5.037183799999999,-2.8513715,7.6922393,0.2596824,1.2109478,0.3768118
36788,14:09:59.574000,-5.1521006,-3.3230089999999994,7.1559610000000005,0.1570571,1.2537081,0.3572641
36789,14:09:59.592000,-5.855965599999999,-3.3900437000000005,6.4832196,0.0752012,1.2940254,0.32427740000000005
36790,14:09:59.607000,-5.913424,-3.0261407000000005,6.693900099999999,0.21570010000000003,1.3099077,0.3755901
36791,14:09:59.611000,-6.3754849,-2.2600293,6.823181599999999,0.21570010000000003,1.3099077,0.3755901
36792,14:09:59.623000,-6.6699591,-2.1738417,6.657988499999999,0.2291391,1.2390475,0.4085767
36793,14:09:59.632000,-6.9428864,-1.8937321,6.466460700000001,0.1191835,1.1865132,0.4085767
36794,14:09:59.641000,-6.5047665,-2.5161977,6.4425197,-0.072628,1.0728921999999999,0.36581620000000004
36795,14:09:59.654000,-6.1025577,-3.2224569,6.564619099999999,-0.2717699,0.9690451999999999,0.3511555
36796,14:09:59.658000,-6.0115819,-3.2679447999999995,6.547860099999999,-0.2717699,0.9690451999999999,0.3511555
36797,14:09:59.668000,-6.2581739,-3.3254032,6.4257612,-0.31819559999999997,0.9421671999999999,0.3572641
36798,14:09:59.679000,-6.2581739,-3.2009101,6.334785500000001,-0.31819559999999997,0.9421671999999999,0.3572641
36799,14:09:59.689000,-6.6101065000000006,-3.0644464,6.2557802,-0.2974263,0.9604931000000001,0.3792552
36800,14:09:59.699000,-6.4209727999999995,-3.0812049,6.1743803,-0.2888741,0.9739322,0.4110202
36801,14:09:59.709000,-6.437731299999999,-3.3182209000000005,6.1504392999999995,-0.3194174,0.970267,0.4305679
36802,14:09:59.720000,-6.3587264999999995,-3.5217192,5.8870888,-0.45625109999999997,0.911624,0.38536390000000004
36803,14:09:59.728000,-6.385061299999999,-3.8568931000000006,6.025946599999999,-0.45625109999999997,0.911624,0.38536390000000004
36804,14:09:59.738000,-6.277327099999999,-4.1250324,6.0498877,-0.6150759,0.8456505999999999,0.40246809999999994
36805,14:09:59.747000,-6.0738287,-4.5439997000000005,5.6572556,-0.6150759,0.8456505999999999,0.40246809999999994
36806,14:09:59.756000,-6.0163698,-4.6948276,5.7218962,-0.7372489000000001,0.7808989000000001,0.4122419
36807,14:09:59.769000,-6.3371797,-4.5176644,5.5207915000000005,-1.0280205,0.514562,0.4195723
36808,14:09:59.776000,-5.8296304,-4.852837999999999,5.142523799999999,-1.0280205,0.514562,0.4195723
36809,14:09:59.787000,-6.5311017,-4.2543135,5.367569400000001,-1.134311,0.17980810000000003,0.4488938
36810,14:09:59.796000,-6.4257612,-3.58636,5.6237378,-1.2112798999999999,0.0698524,0.6810223000000001
36811,14:09:59.805000,-7.100896799999999,-3.5480542,5.0323954,-1.2112798999999999,0.0698524,0.6810223000000001
36812,14:09:59.815000,-6.763329,-3.4139847999999997,4.7211623,-1.2564839,0.025870099999999997,0.8398472
36813,14:09:59.824000,-4.1872787,-3.2870975,7.4959229999999994,-1.323679,-0.1011897,0.9595767
36814,14:09:59.836000,-7.452829400000001,-3.0021996,4.9773316,-1.4067566,-0.3039968,0.8618383
36815,14:09:59.844000,-7.237360499999999,-1.2688723999999998,5.6644373,-1.4067566,-0.3039968,0.8618383
36816,14:09:59.854000,-7.4935288,-1.2401432,5.5495209999999995,-1.3358963,-0.0657596,1.2540135000000001
36817,14:09:59.863000,-7.471982000000001,-1.5777111000000001,5.9182119,-1.3090183000000002,-0.1170722,1.4580423999999998
36818,14:09:59.873000,-7.407341499999999,-2.6598437,5.8799067,-1.4238608,-0.2001498,1.6168672
36819,14:09:59.885000,-7.665903999999999,-2.932771,5.9972177,-1.3212355,-0.1036332,1.7989049
36820,14:09:59.892000,-7.486347200000001,-2.8824949,5.9373651,-1.3212355,-0.1036332,1.7989049
36821,14:09:59.902000,-7.1846905,-3.1314812,5.7410488,-1.0145814,0.0784045,1.8453306
36822,14:09:59.912000,-6.600530099999999,-3.7563410000000004,5.6213441,-1.0145814,0.0784045,1.8453306
36823,14:09:59.921000,-6.339573400000001,-3.8999867,5.5926147,-0.9510514999999999,0.12360850000000001,1.8318915
36824,14:09:59.934000,-6.3611207,-3.7132473,5.6189499000000005,-0.8948519,0.16759079999999998,1.7964615000000002
36825,14:09:59.940000,-6.2653565,-3.4187729,5.6237378,-0.8520914,0.2103513,1.7573661
36826,14:09:59.951000,-6.423367,-2.9279827999999997,5.5758562000000005,-0.98526,0.20057750000000002,1.7317096999999997
36827,14:09:59.960000,-6.564619099999999,-2.8154602000000004,5.2765937,-0.98526,0.20057750000000002,1.7317096999999997
36828,14:09:59.969000,-6.0714345000000005,-3.3661027000000003,5.0515485,-1.1489717,0.1297171,1.7500356
36829,14:09:59.982000,-5.6357083,-3.5648129,5.1066127,-1.3517787,0.049083,1.7268229
36830,14:09:59.990000,-4.852837999999999,-4.1417909,5.197588400000001,-1.7036368999999998,-0.0633161,1.5594458999999998
36831,14:10:00.003000,-4.8265028,-3.3708911,6.035522900000001,-1.9430958999999999,-0.10607660000000001,1.4433815
36832,14:10:00.009000,-5.9397588,-0.7780821,6.3132386,-2.1984372000000003,-0.2661232,1.4397165
36833,14:10:00.018000,-6.7441759,-1.3670303999999998,6.0642519,-2.3193884,-0.5361254,1.5215722
36834,14:10:00.027000,-6.5311017,-3.2631563999999997,5.9301825,-2.3193884,-0.5361254,1.5215722
36835,14:10:00.036000,-6.9500684999999995,-1.3742126000000001,5.9038477,-1.9785258999999997,-0.7499281,1.8819824
36836,14:10:00.048000,-7.706604,-0.7158355,5.944547200000001,-1.7463973999999998,-0.7670323,2.0432508
36837,14:10:00.056000,-8.2883701,-0.0023940999999999997,6.248597599999999,-1.7463973999999998,-0.7670323,2.0432508
36838,14:10:00.069000,-8.9156237,0.7086533,6.3563317999999995,-1.8331401000000003,-0.8830966,2.4488649
36839,14:10:00.076000,-9.4495077,1.0174919,6.3371797,-1.9333220000000002,-0.9478482,2.6492286
36840,14:10:00.086000,-9.5189371,1.2832369,6.4305490999999995,-1.9333220000000002,-0.9478482,2.6492286
36841,14:10:00.098000,-9.4423246,1.1826848,5.9924288,-2.0408342,-1.0089347,2.8349314
36842,14:10:00.105000,-9.2914972,0.009576399999999999,5.295746299999999,-2.1813331000000002,-1.043143,2.9766521
36843,14:10:00.117000,-8.791131,-0.2489863,5.4585452000000005,-2.1129162,-1.0223737,3.0377386000000004
36844,14:10:00.125000,-8.4727154,-0.1484341,5.901453500000001,-2.1129162,-1.0223737,3.0377386000000004
36845,14:10:00.145000,-8.1112061,0.7158355,7.0865326,-1.9235482,-0.8916487,2.9778738
36846,14:10:00.155000,-8.0417776,0.9504572,7.2636956999999995,-1.8612398999999997,-0.5764425,2.981539
36847,14:10:00.164000,-7.953196000000001,0.6799241,6.739388000000001,-1.9211046999999999,-0.5141342999999999,3.0145257
36848,14:10:00.174000,-7.735333,0.071823,6.2749329000000005,-1.9211046999999999,-0.5141342999999999,3.0145257
36849,14:10:00.185000,-7.6850572,-0.15082820000000002,6.5311017,-2.1471248,-0.3247662,3.0145257
36850,14:10:00.193000,-7.7496977,-0.2537745,6.9021864,-2.1471248,-0.3247662,3.0145257
36851,14:10:00.203000,-7.776032400000001,-0.42136140000000005,7.1583557,-2.2656324,-0.0559857,3.0963814
36852,14:10:00.214000,-7.5485935,-0.3495384,7.3283366999999995,-2.2656324,-0.0559857,3.0963814
36853,14:10:00.222000,-7.4815583,-0.5219135,7.062591599999999,-2.2497499,0.027091900000000006,3.1770158
36854,14:10:00.235000,-7.2445431,-0.48839620000000006,6.856699000000001,-2.1642289,0.0845132,3.3724922999999993
36855,14:10:00.241000,-7.220602,-0.6392244,6.4425197,-2.1642289,0.0845132,3.3724922999999993
36856,14:10:00.251000,-7.390583,-0.8187817,5.8296304,-2.0872599999999997,0.014874600000000002,3.541091
36857,14:10:00.261000,-7.723362400000001,-0.6966828,5.1928,-2.0872599999999997,0.014874600000000002,3.541091
36858,14:10:00.270000,-8.0010777,-0.6535890000000001,4.687645400000001,-2.1300204,-0.0608726,3.6107297
36859,14:10:00.283000,-8.5636911,-1.26169,3.978992,-2.2338674,-0.18548900000000001,3.6925855000000003
36860,14:10:00.290000,-9.686524400000001,-2.1451125,2.9375593999999996,-2.2338674,-0.18548900000000001,3.6925855000000003
36861,14:10:00.300000,-10.131826400000001,-4.1250324,1.6567163,-2.434231,-0.21114539999999998,3.5997341
36862,14:10:00.309000,-11.314511300000001,-3.416379,1.4843413,-2.434231,-0.21114539999999998,3.5997341
36863,14:10:00.318000,-10.7734442,-3.3397677000000003,1.4651883999999997,-2.4195702,-0.23191479999999998,3.5655254999999997
36864,14:10:00.331000,-10.071972800000001,-2.8585539,0.08379349999999999,-2.2106545,-0.2820057,3.3639402
36865,14:10:00.337000,-9.521330800000001,-2.619144,-1.3023897,-1.9687521000000001,-0.31132719999999997,3.00353
36866,14:10:00.351000,-7.5102877999999995,-2.5473211,-2.2193296,-1.6376635,-0.1329547,2.1580932
36867,14:10:00.358000,-7.531834599999999,0.2154689,-0.5482486,-1.6376635,-0.1329547,2.1580932
36868,14:10:00.367000,-4.1513672,2.0158311999999996,-0.6918946,-1.7134107,0.1822515,1.5667763000000001
36869,14:10:00.377000,-4.4602059999999994,4.3045893,-0.047882,-2.4073529,0.48401869999999997,1.1232885
36870,14:10:00.386000,5.6524668,-0.4788198,-1.1348027,-3.2662289,1.1865132,0.5906144
36871,14:10:00.399000,-7.498317699999999,-5.4896684,-7.220602,-4.334020099999999,3.8902004,-1.1039243
36872,14:10:00.406000,-4.0412387999999995,-6.3204203,-10.1102791,-4.334020099999999,3.8902004,-1.1039243
36873,14:10:00.416000,-5.640496700000001,-3.8832282999999994,-10.093520199999999,-3.1220647999999995,3.0655329,-0.4136472
36874,14:10:00.425000,-5.630920400000001,-5.4537568,-7.8430675999999995,-3.1220647999999995,3.0655329,-0.4136472
36875,14:10:00.435000,-5.7985072,-6.5670128,-7.1392026,-2.1116946,2.7979741000000002,-0.6641017
36876,14:10:00.449000,-5.796113,-6.792058,-6.0283403,-0.28032199999999996,2.5878367,-0.6127891
36877,14:10:00.454000,-5.0946422,-7.218207400000001,-4.950995900000001,-0.28032199999999996,2.5878367,-0.6127891
36878,14:10:00.466000,-3.7395822999999995,-5.030001599999999,-7.9244671,1.6194673000000002,2.1993267999999997,-0.2853656
36879,14:10:00.474000,-6.171986599999999,-7.3522773,-6.0283403,1.6194673000000002,2.1993267999999997,-0.2853656
36880,14:10:00.483000,-9.226857199999998,-6.1097398,-8.580450099999998,2.4905603,2.4375639,-0.5810241
36881,14:10:00.493000,-17.5295925,-4.290225,-9.7344065,3.6768596,2.9641294,0.1923306
36882,14:10:00.502000,-23.799736,-1.7429038000000001,-12.676753,3.6768596,2.9641294,0.1923306
36883,14:10:00.514000,-21.5277367,-0.1604046,-11.6377144,4.2461858,2.3300519,0.053053499999999996
36884,14:10:00.523000,-15.9853973,-1.7189629000000002,-8.008260700000001,4.2461858,2.3300519,0.053053499999999996
36885,14:10:00.533000,-14.5297852,-2.6095676,-3.3086444999999998,4.4001236,1.8719032,-2.0703123
36886,14:10:00.542000,-18.6691818,-2.1139894,-0.5147311999999999,4.4001236,1.8719032,-2.0703123
36887,14:10:00.551000,-23.9577465,-2.2241178,0.16279870000000002,3.9737398999999995,2.5133111,-2.4038444
36888,14:10:00.564000,-27.0628929,-3.270339,-0.7708998,4.0397134,4.7087593,-3.8882456
36889,14:10:00.571000,-29.143364000000002,0.28010959999999996,-2.3342462000000004,4.0397134,4.7087593,-3.8882456
36890,14:10:00.581000,-28.070808399999997,-1.0557975,-3.6940942000000003,5.8417645,6.1100831,-5.1466269
36891,14:10:00.590000,9.1837626,5.7171078,-7.6204165999999995,5.8417645,6.1100831,-5.1466269
36892,14:10:00.600000,-30.505605699999997,1.9703432,-4.316559799999999,6.6077886,5.7741074999999995,-5.2626915
36893,14:10:00.613000,-23.974504500000002,-0.1053403,-1.6064403,6.0531235,4.780841400000001,-5.6145492
36894,14:10:00.619000,-20.950758,0.18434560000000003,-0.1987102,6.0531235,4.780841400000001,-5.6145492
36895,14:10:00.630000,-36.9648857,4.8911432999999995,5.0683069000000005,4.8436112,4.2848191,-5.860117
36896,14:10:00.639000,-78.4402466,75.0310593,17.2039948,3.4044138999999998,3.7887967000000002,-6.0067244
36897,14:10:00.658000,-30.0866375,17.0699234,30.033967999999998,1.4288775,1.5603623,-5.7782612
36898,14:10:00.667000,-22.971378299999998,-1.4292768999999999,20.5868568,-10.165334699999999,-9.861586599999999,5.9149113
36899,14:10:00.680000,-8.520597500000001,-5.039578,4.5439997000000005,-11.0437584,-3.5366929,-1.8210794999999997
36900,14:10:00.687000,-9.2914972,-6.428154900000001,1.7596626,-7.5557208,-0.12195910000000001,-0.2694831
36901,14:10:00.697000,-6.0307345,-9.212492,1.5322232,-2.9754572,1.3929853,-1.6158289
36902,14:10:00.706000,-3.5456602999999998,-8.4368038,2.2169354,-2.9754572,1.3929853,-1.6158289
36903,14:10:00.716000,-3.4929900000000003,-5.3460225999999995,0.8786343000000001,-0.3072001,1.1376441000000002,-1.5596292999999999
36904,14:10:00.729000,-4.9366317,-5.5423384,0.33756790000000003,2.8387532,0.9629366,1.7219359
36905,14:10:00.735000,-4.927054900000001,-4.1800966,0.2729273,3.8185802000000004,0.9482759,2.3352442000000004
36906,14:10:00.747000,-4.2255845,-5.1281595,-2.9950175,3.8185802000000004,0.9482759,2.3352442000000004
36907,14:10:00.756000,-0.49797250000000004,-3.9670214999999995,-0.42136140000000005,3.855232,0.7100387,2.2924835999999997
36908,14:10:00.766000,-5.2909579,-3.5001721,-0.8522992,3.4044138999999998,0.4803535,3.2051156
36909,14:10:00.780000,2.0708954,-2.1259596000000003,1.3933655,2.9193873,0.5744267,3.6681508999999997
36910,14:10:00.784000,-5.6668315,-2.2696054,-0.7469588,2.4856734,0.47057970000000005,3.7475633999999998
36911,14:10:00.796000,-4.4626002,-2.3773401,-0.3806617,2.0006468,0.31542,3.7707763
36912,14:10:00.802000,-4.6684923,-2.9279827999999997,-0.8666638000000001,2.0006468,0.31542,3.7707763
36913,14:10:00.811000,-5.2981405,-2.7053316,-1.1946553,1.3433563999999998,0.1052825,4.239920099999999
36914,14:10:00.822000,-5.3579931,-2.3893106,-1.4220946,1.3433563999999998,0.1052825,4.239920099999999
36915,14:10:00.831000,-4.8576264,-2.2384822,-1.5848933,1.3677909,-0.09874630000000001,4.2423639
36916,14:10:00.844000,-5.0276074,-1.9272496,-1.6375635,1.5412766000000002,-0.379744,4.0639911
36917,14:10:00.851000,-5.4896684,-2.1882062,-1.7429038000000001,1.5412766000000002,-0.379744,4.0639911
36918,14:10:00.861000,-6.4927959,-2.2624232999999996,-1.817121,1.4362078,-0.4298349,3.983357
36919,14:10:00.871000,-7.7257565999999995,-2.5952029,-1.6375635,1.4362078,-0.4298349,3.983357
36920,14:10:00.880000,-9.4758434,-3.2056982999999994,-1.2664783000000002,1.2517266000000002,-0.4017352,3.9625877999999997
36921,14:10:00.894000,-11.8795176,-3.9574451,-1.0510093999999999,0.6860659,-0.4127307,3.7793282999999995
36922,14:10:00.900000,-14.479509400000001,-5.499245200000001,-1.3837892,0.6860659,-0.4127307,3.7793282999999995
36923,14:10:00.914000,-15.6981049,-7.412129400000001,-2.3318522,0.09352719999999999,-0.6680722,2.899683
36924,14:10:00.919000,-14.996635399999999,-9.5189371,-4.1346083,0.09352719999999999,-0.6680722,2.899683
36925,14:10:00.929000,-13.3997707,-9.5309067,-6.0618582000000005,-0.12027550000000001,-1.1897507,1.1403927
36926,14:10:00.939000,-12.0016174,-9.253191900000001,-6.2126861,-0.12027550000000001,-1.1897507,1.1403927
36927,14:10:00.948000,-12.372701600000001,-6.1839571,-5.6428905,0.252352,-1.2508371,-1.0000774
36928,14:10:00.959000,-12.928133,-4.3069835,-4.5703344,0.252352,-1.2508371,-1.0000774
36929,14:10:00.967000,-12.841945599999999,-2.5090156,-3.636636,0.8778775,-0.8452228999999999,-2.0299952
36930,14:10:00.978000,-12.8610983,-1.4891294,-3.2080922000000003,1.985986,-0.3296531,-3.1258863999999997
36931,14:10:00.987000,-13.6056633,-1.2736604999999999,-3.4953842000000006,1.985986,-0.3296531,-3.1258863999999997
36932,14:10:00.996000,-14.7691946,-1.7596626,-4.0316625,2.0153077,-0.1353981,-3.3800062999999994
36933,14:10:01.008000,-16.2894478,-2.5975973999999997,-5.314899,1.7404183999999998,-0.020555599999999997,-3.7025428
36934,14:10:01.016000,-10.8524504,-5.044365900000001,0.42854369999999997,1.2688309,0.0051007,-3.9847622000000005
36935,14:10:01.026000,-16.4522476,-4.6637044,-5.2502584,0.27067800000000003,0.1517083,-4.4319153
36936,14:10:01.036000,-16.796995199999998,-5.1664648,-5.4753041,0.27067800000000003,0.1517083,-4.4319153
36937,14:10:01.045000,-15.949485800000001,-5.891877200000001,-5.1137948,-0.0762932,0.3007593,-4.599292299999999
36938,14:10:01.055000,-14.934388199999999,-6.1552280999999995,-4.6780691,-0.330413,0.40094109999999994,-4.7678909
36939,14:10:01.065000,-14.2281294,-6.3635144,-4.512876,-0.6004151,0.6428435,-4.5492015
36940,14:10:01.076000,-13.7971907,-6.2605680999999995,-4.352471400000001,-0.48923779999999994,0.7894511,-4.386711099999999
36941,14:10:01.084000,-13.734945300000001,-6.171986599999999,-4.524846599999999,-0.48923779999999994,0.7894511,-4.386711099999999
36942,14:10:01.096000,-13.9097137,-5.6357083,-4.804956,0.38307709999999995,1.1608566999999999,-4.0971613
36943,14:10:01.103000,-14.113211600000001,-5.164071099999999,-5.0419722,0.38307709999999995,1.1608566999999999,-4.0971613
36944,14:10:01.112000,-14.3957157,-4.6948276,-5.3005347,1.0953454,1.2964687,-3.9859841
36945,14:10:01.125000,-14.714131400000001,-4.3117719,-5.456151,2.595629,1.4320807,-3.8442633
36946,14:10:01.132000,-14.864958800000002,-4.0292683,-5.530367900000001,2.595629,1.4320807,-3.8442633
36947,14:10:01.142000,-15.0277576,-4.010115600000001,-5.5471268,3.2516978,1.466289,-3.7966161
36948,14:10:01.151000,-15.2384386,-3.8544991000000004,-5.5830383,3.8161367999999993,1.4809499,-3.7624074999999997
36949,14:10:01.161000,-15.240833300000002,-4.0149035,-5.4872746,4.3329287,1.4797281999999998,-3.7257557
36950,14:10:01.174000,-15.492213199999998,-3.6342421000000003,-5.4537568,4.8484983,1.4394112,-3.724534
36951,14:10:01.181000,-15.729229,-3.0309291000000003,-5.5183973,5.3897247,1.3942072,-3.6878818999999994
36952,14:10:01.201000,-14.9942398,-2.1499007000000003,-5.3747516,6.0079198,1.3392293,-3.6646693
36953,14:10:01.210000,-14.5752726,-1.4388534,-4.8959322,7.8075271,0.9971450000000001,-3.6194650999999998
36954,14:10:01.220000,-13.859437900000001,-0.8475109000000001,-4.417111900000001,7.8075271,0.9971450000000001,-3.6194650999999998
36955,14:10:01.230000,-12.887433999999999,-0.3974204,-4.010115600000001,7.9822345,0.8199943000000001,-3.6035826
36956,14:10:01.241000,-12.013588,-0.0502761,-3.6725476,7.7549925,0.4437016,-3.5913652999999996
36957,14:10:01.249000,-11.2809935,0.2777155,-3.416379,7.7549925,0.4437016,-3.5913652999999996
36958,14:10:01.260000,-10.440665199999998,0.6751359,-2.9902293999999996,7.5069818,0.283655,-3.4838532999999994
36959,14:10:01.268000,-9.4566898,1.1994434999999999,-2.6143558,7.1905537,0.11016949999999999,-3.3555717000000005
36960,14:10:01.278000,-8.4822922,1.7381157999999999,-2.0996243999999997,6.1814051,-0.2258061,-3.1442125
36961,14:10:01.292000,-7.4935288,2.0852599,-1.5226468,5.447145900000001,-0.36263979999999996,-3.0611347999999996
36962,14:10:01.297000,-6.7585410999999995,2.4252219,-1.0629798000000001,5.447145900000001,-0.36263979999999996,-3.0611347999999996
36963,14:10:01.309000,-6.0546755999999995,2.449163,-0.7014709,4.5479531,-0.4579347,-2.9267447
36964,14:10:01.316000,-5.3268695,2.2193296,-0.5506426999999999,3.5241434999999997,-0.5141342999999999,-2.7532589
36965,14:10:01.326000,-4.9126905999999995,1.9583727,-0.5314899000000001,2.4502432,-0.5300168000000001,-2.5675561
36966,14:10:01.336000,-4.6637044,1.1826848,-0.6990768,1.4044428,-0.4909214,-2.3439796000000004
36967,14:10:01.345000,-4.6086402,0.6966828,-0.7804762,0.46248950000000005,-0.4151742,-2.0678687
36968,14:10:01.357000,-4.699616000000001,0.2729273,-0.7876585,-0.8728608,-0.18426729999999997,-1.3446049999999998
36969,14:10:01.365000,-4.9079027,-0.169981,-0.7421706,-0.8728608,-0.18426729999999997,-1.3446049999999998
36970,14:10:01.375000,-5.018031099999999,-0.7661116,-0.6559831,-1.5985681,0.0735176,-0.6164543
36971,14:10:01.384000,-5.1377358,-1.139591,-0.4381201,-1.5985681,0.0735176,-0.6164543
36972,14:10:01.394000,-5.2335,-1.3670303999999998,-0.5003666,-1.8099273,0.19691229999999998,-0.2193922
36973,14:10:01.407000,-5.3292642,-0.9217280000000001,-0.35672070000000006,-1.9272133999999999,0.4253757000000001,0.5405234999999999
36974,14:10:01.414000,-5.1544943,-0.8499051,-0.5267016999999999,-1.9272133999999999,0.4253757000000001,0.5405234999999999
36975,14:10:01.425000,-4.7977738,-1.041433,-0.22265120000000002,-2.0848165,0.5903090999999999,0.9436941999999999
36976,14:10:01.433000,-4.9821196,-0.7780821,-0.44530240000000004,-2.0848165,0.5903090999999999,0.9436941999999999
36977,14:10:01.443000,-5.1736474,0.5674013000000001,0.4093909,-2.266854,0.6465086999999999,1.3273173999999999
36978,14:10:01.455000,-4.9533906,-0.36390300000000003,0.023941,-2.4036877,0.6868258,1.6217541000000002
36979,14:10:01.462000,-5.6141615,-0.33756790000000003,-0.2944742,-2.6064949,0.8126639,1.5716631
36980,14:10:01.474000,-6.5311017,-0.3806617,-0.3974204,-3.2246900000000003,1.015471,2.5136166
36981,14:10:01.481000,-7.948408099999999,-0.3303856,-0.7302001,-3.2246900000000003,1.015471,2.5136166
36982,14:10:01.491000,-9.358532,-0.581766,-1.0390389000000002,-3.5227921,1.0887746999999999,3.0145257
36983,14:10:01.501000,-10.8739967,-0.8858166,-1.5082823,-3.8489937999999992,1.1400874,3.4763393
36984,14:10:01.510000,-12.573806800000002,-1.1850789,-1.9607668999999999,-4.210625599999999,1.1474178,3.9051663999999997
36985,14:10:01.523000,-14.2520704,-1.6567163,-2.4659216,-5.0291843,1.1229832,4.8116899
36986,14:10:01.530000,-15.793869,-2.0900483,-2.813066,-5.0291843,1.1229832,4.8116899
36987,14:10:01.540000,-16.8736076,-2.7580017999999997,-3.0285349,-5.4103637,1.0802226000000001,5.1916475
36988,14:10:01.549000,-18.051504100000002,-3.7347938999999997,-2.9950175,-5.7353439,1.015471,5.4983015
36989,14:10:01.559000,-19.3275604,-5.0252137,-2.8322186,-5.950367900000001,0.9372804,5.7463125999999995
36990,14:10:01.571000,-20.7544422,-6.3299971,-2.7077258,-5.987019999999999,0.8444288000000001,5.9613371
36991,14:10:01.578000,-21.611530300000002,-7.618022,-3.1219049,-5.780547599999999,0.7344732,6.1824703
36992,14:10:01.591000,-21.513372399999998,-9.116727800000001,-3.1506341,-4.380446,0.4803535,6.286317299999999
36993,14:10:01.598000,-21.0632801,-9.8493223,-3.7707055,-4.380446,0.4803535,6.286317299999999
36994,14:10:01.608000,-19.2294025,-8.9156237,-4.213614,-1.7292932,0.1736994,5.7560863
36995,14:10:01.617000,-18.1065674,-8.3601933,-4.4673886,-1.7292932,0.1736994,5.7560863
36996,14:10:01.626000,-15.142675400000002,-7.7520914,-4.6182165,-0.6004151,-0.12195910000000001,5.2173038
36997,14:10:01.638000,-13.0478382,-4.7666507000000005,-3.9981451,1.1503232,-0.46282159999999994,3.5447562000000006
36998,14:10:01.646000,-12.983198199999999,-1.4005477,-3.8928044,1.1503232,-0.46282159999999994,3.5447562000000006
36999,14:10:01.657000,-13.663122199999998,0.5123371,-3.3972260999999997,1.3286957,-0.2477973,3.0878294
37000,14:10:01.665000,-13.9384432,1.0486152,-2.7125139,1.0611368,-0.09874630000000001,2.6638894
37001,14:10:01.675000,-13.222606699999998,0.581766,-2.4850745,0.4417201,-0.0669813,2.1348805
37002,14:10:01.688000,-12.3918552,-0.6703475999999999,-2.7723663,-1.3774351,-0.1806021,0.9705722999999999
37003,14:10:01.706000,-10.909908300000001,-1.1204382,-2.3869164,-1.3774351,-0.1806021,0.9705722999999999
37004,14:10:01.714000,-9.9953623,-1.4795530000000001,-2.2648175,-2.9913397,-0.34309209999999996,0.20088270000000003
37005,14:10:01.723000,-8.9036531,-2.0541368,-2.0110431,-3.8318896000000002,-0.40662209999999993,-0.0459066
37006,14:10:01.736000,-8.3386459,-2.6143558,-2.4371924,-4.6333437,-0.47381720000000005,-0.23160949999999997
37007,14:10:01.743000,-7.8717966,-3.2248509,-2.8729186,-5.3944812,-0.5080256,-0.2817004
37008,14:10:01.754000,-7.0578032,-5.1712537,-3.1123283,-6.4402819000000004,-0.4677085999999999,-0.15586229999999998
37009,14:10:01.763000,-7.2972131,-4.8719912,-3.6318479,-6.4402819000000004,-0.4677085999999999,-0.15586229999999998
37010,14:10:01.772000,-7.342700999999999,-5.0683069000000005,-4.0675735,-6.3755302,-0.3601964,0.452559
37011,14:10:01.782000,-6.8590932,-5.5279741,-3.9765980000000005,-6.3755302,-0.3601964,0.452559
37012,14:10:01.792000,-6.600530099999999,-5.9948235,-4.2614961,-5.9051642,-0.45182609999999995,0.5527408
37013,14:10:01.804000,-6.4401255,-6.4880075,-4.383595,-4.663887,-0.5727773,1.0646455
37014,14:10:01.811000,-6.3012681,-6.9261274,-4.316559799999999,-4.663887,-0.5727773,1.0646455
37015,14:10:01.823000,-6.1480455,-7.165537400000001,-4.0915146,-2.9669051,-0.6216465,1.6828406000000002
37016,14:10:01.830000,-6.286903400000001,-7.218207400000001,-3.6725476,-2.9669051,-0.6216465,1.6828406000000002
37017,14:10:01.840000,-6.5239191,-6.978797900000001,-3.3373737,-2.0506078999999997,-0.5666686,1.974834
37018,14:10:01.849000,-6.4880075,-6.8950043,-3.0117762000000003,-1.1782932,-0.46159989999999995,2.186193
37019,14:10:01.858000,-6.3036617999999995,-6.9572511,-2.5114095,-0.39760809999999996,-0.339427,2.2521665
37020,14:10:01.869000,-6.1264987,-7.0003443,-2.0206193999999997,0.2694562,-0.22702779999999997,2.2167362999999995
37021,14:10:01.878000,-6.2198687,-6.9213395,-1.8219091,0.8265648000000001,-0.048655300000000005,2.1202197
37022,14:10:01.888000,-6.1863508000000005,-6.7082644,-1.5801051000000002,1.76974,0.43514949999999997,1.7769138
37023,14:10:01.899000,-6.399426,-6.1863508000000005,-1.5178586,2.1777976000000003,0.6892691999999999,1.5521156
37024,14:10:01.907000,-6.938097999999999,-5.4393926,-1.5322232,2.5149949,0.9336151,1.3456433
37025,14:10:01.919000,-7.5150762,-4.9294496,-1.2832369,2.7788885,1.119318,1.0683106000000002
37026,14:10:01.926000,-8.429621699999998,-4.6900395999999995,-1.2497194999999999,2.9426002999999996,1.2781428999999997,0.7750954999999999
37027,14:10:01.936000,-9.801440199999998,-4.704403900000001,-1.1156501,3.0268996,1.4113114,0.5283062
37028,14:10:01.945000,-11.276205099999999,-4.869597,-1.3502717,3.0268996,1.4113114,0.5283062
37029,14:10:01.956000,-12.492406800000001,-5.1951947,-1.7069923999999999,3.0061302000000003,1.4699543,0.0164016
37030,14:10:01.979000,-13.220212900000002,-5.2598348,-2.3486105999999998,2.9633696,1.3990941000000001,-0.2914743
37031,14:10:01.986000,-13.708608600000002,-4.8552327,-2.9638944,2.9474871,1.2671473,-0.6592148
37032,14:10:01.987000,-13.763673800000001,-4.271071900000001,-3.0548699,2.9474871,1.2671473,-0.6592148
37033,14:10:01.996000,-14.1060305,-3.2894917,-2.8106720000000003,2.7764449,0.8261029000000001,-1.4985429
37034,14:10:02.004000,-14.434021,-2.7077258,-2.4635274,2.5699728,0.6220741,-1.9078223
37035,14:10:02.014000,-14.757225,-2.1499007000000003,-2.0349839,2.2840881,0.4730231,-2.2682322999999998
37036,14:10:02.022000,-14.5848503,-2.0325898999999996,-1.721357,2.2840881,0.4730231,-2.2682322999999998
37037,14:10:02.033000,-14.297557800000002,-2.6502673999999997,-1.8219091,1.575485,0.2225686,-2.8082368
37038,14:10:02.042000,-13.904926300000001,-3.4570785,-1.9009144,1.575485,0.2225686,-2.8082368
37039,14:10:02.052000,-13.5769339,-3.8497107,-1.9918901000000002,1.2737178,0.052748199999999995,-2.8766537
37040,14:10:02.062000,-13.167543400000001,-4.3405008,-1.9607668999999999,1.2737178,0.052748199999999995,-2.8766537
37041,14:10:02.072000,-12.868281399999999,-4.577516999999999,-2.039772,1.3971125,0.0112094,-2.8595495
37042,14:10:02.084000,-12.3631258,-4.7834096,-1.8075444999999999,1.900465,-0.0645378,-2.7911327
37043,14:10:02.092000,-12.327214199999998,-4.8193212,-2.0062547,1.900465,-0.0645378,-2.7911327
37044,14:10:02.101000,-12.7605457,-4.1920671,0.3208092,2.5846336,-0.1048549,-2.6384165
37045,14:10:02.112000,-14.7691946,-5.1497064,-3.7156413,2.5846336,-0.1048549,-2.6384165
37046,14:10:02.120000,-16.1865025,-8.1231766,-9.901991800000001,3.2211545,-0.10852010000000001,-2.5162435000000003
37047,14:10:02.131000,-5.2191353,1.0557975,-12.578595199999999,5.2027998,-0.2587928,-2.3940706
37048,14:10:02.140000,-7.536623,10.4263,-24.7238579,18.7517776,0.2665508,1.6107585
37049,14:10:02.154000,-0.5937365,10.2682896,-16.2894478,24.2568913,1.2598169,4.4060755
37050,14:10:02.159000,-5.9301825,16.3756351,-6.1145282,24.2568913,1.2598169,4.4060755
37051,14:10:02.169000,-9.250798199999998,9.272343600000001,-3.7156413,24.021097199999996,2.2714088,5.8464947
37052,14:10:02.179000,-12.9879856,7.895737599999999,-4.8360796,19.19771,2.8932691000000004,6.4378114
37053,14:10:02.199000,-14.0988483,2.2097533,-6.5023718,13.990699800000002,2.8126349,5.2466254
37054,14:10:02.209000,-15.5712175,2.9255888,-4.4626002,6.3109082999999995,3.1620494999999997,2.1580932
37055,14:10:02.217000,-14.666249300000002,3.8640754,-2.2265117,4.6041527,2.5047591000000002,1.6461887
37056,14:10:02.227000,-12.2625742,3.1602101,-0.5985246999999999,3.643873,1.2781428999999997,1.6926144
37057,14:10:02.237000,-11.431821800000002,3.5504483999999996,0.5410663,2.8253142999999996,0.19080360000000002,1.3847386000000002
37058,14:10:02.254000,-10.917090400000001,3.6869121,0.3902381,0.7874694999999999,-1.0907905,1.0389892
37059,14:10:02.256000,-10.1797075,3.2918858999999996,-0.0406997,0.7874694999999999,-1.0907905,1.0389892
37060,14:10:02.267000,-9.9953623,3.4858077000000005,-0.5219135,-0.6456192,-1.5648215,0.5588495
37061,14:10:02.275000,-10.1773138,3.2631563999999997,-1.0893148000000001,-2.2497499,-1.9985356,0.0102929
37062,14:10:02.285000,-10.572339999999999,3.1937277,-1.9464022,-4.0640178,-2.426141,-0.5174942
37063,14:10:02.296000,-10.61304,3.153028,-2.7149078999999996,-5.890503400000001,-2.9013937000000003,-1.1515718000000001
37064,14:10:02.305000,-10.2275896,4.115455600000001,-3.7563410000000004,-9.4432926,-3.9080987,-2.5418998999999998
37065,14:10:02.316000,-16.2200184,3.2080922000000003,-7.5461993000000005,-9.4432926,-3.9080987,-2.5418998999999998
37066,14:10:02.325000,-8.326675400000001,2.6885729,-7.232572599999999,-11.295435000000001,-4.211087200000001,-3.1087822999999997
37067,14:10:02.335000,-7.1846905,1.6543223000000002,-8.1806355,-13.637490300000001,-4.3906817,-4.577301
37068,14:10:02.343000,-9.4973898,0.9791864,-10.890754699999999,-13.637490300000001,-4.3906817,-4.577301
37069,14:10:02.352000,-6.0810108,0.12449310000000001,-10.7662621,-14.3167715,-3.9936197,-5.4483943
37070,14:10:02.365000,-5.7625957,-0.30883879999999997,-11.2905703,-14.7798071,-3.3632072999999996,-6.3854609
37071,14:10:02.373000,-4.9198732000000005,-1.2712663,-11.632926,-14.7798071,-3.3632072999999996,-6.3854609
37072,14:10:02.384000,-4.651733900000001,-1.9224613000000002,-11.7358723,-13.850071,-2.3955977,-7.1661458
37073,14:10:02.392000,-4.3716245,-3.2583685,-11.659260699999999,-13.850071,-2.3955977,-7.1661458
37074,14:10:02.402000,-4.2782545,-4.522452400000001,-11.2091703,-12.849474,-1.9924269000000001,-7.295649099999999
37075,14:10:02.414000,-3.7587349000000003,-6.171986599999999,-10.2922306,-10.2960596,-1.4536443000000001,-6.5711637000000005
37076,14:10:02.421000,-4.0891209,-7.402553599999999,-9.4686613,-10.2960596,-1.4536443000000001,-6.5711637000000005
37077,14:10:02.435000,-4.900720099999999,-7.9508018,-8.661849,-6.982729400000001,-0.9454048,-4.8668509
37078,14:10:02.441000,-5.3555989,-8.5948153,-7.694633500000001,-6.982729400000001,-0.9454048,-4.8668509
37079,14:10:02.451000,-5.8224478,-8.83183,-7.237360499999999,-3.1098475,-0.5935467,-3.4826314
37080,14:10:02.460000,-5.9948235,-9.1382751,-6.753752700000001,-3.1098475,-0.5935467,-3.4826314
37081,14:10:02.470000,-5.8032956,-9.916357000000001,-6.8519106,-1.0866635,-0.5312384,-2.7166071
37082,14:10:02.482000,-5.2933525999999995,-8.611573199999999,-6.768117,3.173507,-0.4958083,-0.8192613999999999
37083,14:10:02.489000,-4.3788066,-8.7552195,-7.0147095,3.173507,-0.4958083,-0.8192613999999999
37084,14:10:02.499000,-4.3237424,-7.7329387999999994,-6.476037,7.3933606,-0.40295690000000006,1.139171
37085,14:10:02.509000,-8.4607449,7.0458326,-2.52338,7.3933606,-0.40295690000000006,1.139171
37086,14:10:02.518000,-2.7627900000000003,-2.8346131000000003,-2.3940987999999996,9.2711592,-0.23680170000000003,2.2423928
37087,14:10:02.531000,-2.592809,-3.8712578,-3.8856222999999996,11.3138905,1.3050208,1.1122929
37088,14:10:02.538000,-4.9198732000000005,-1.8769734,-5.3005347,11.3138905,1.3050208,1.1122929
37089,14:10:02.549000,-5.4657273,-2.1187775,-5.08746,11.3676462,2.5976105,3.695029
37090,14:10:02.556000,-5.602191,-1.9176731,-4.9916959,11.3676462,2.5976105,3.695029
37091,14:10:02.565000,-6.3252090999999995,-0.47642559999999995,-4.630187,11.8074694,3.6910584,3.3761574999999997
37092,14:10:02.575000,-7.4384651,1.8051505,-3.3182209000000005,11.8074694,3.6910584,3.3761574999999997
37093,14:10:02.585000,-10.1078854,4.3716245,-0.1532223,11.1037531,4.1467637999999996,3.4677873
37094,14:10:02.595000,-11.9513407,4.9366317,3.2200627,9.6462297,4.4118791,3.442131
37095,14:10:02.603000,-13.790008499999999,7.2277842,7.0290742,7.587616000000001,4.4607482,2.9656564999999997
37096,14:10:02.613000,-14.1227894,8.669032099999999,7.9723492,4.9608974,4.3617883,2.5356077999999997
37097,14:10:02.623000,-13.787614800000002,4.3452892,-0.11731079999999999,1.9774339,4.4167662000000005,2.3279137999999997
37098,14:10:02.633000,-15.5640364,5.334052099999999,-0.9241222,-1.3994262,4.878579599999999,1.8599913000000001
37099,14:10:02.646000,-14.687795600000001,3.1817572,-3.3086444999999998,-6.8177962,3.4906947999999995,1.8832042000000002
37100,14:10:02.654000,-13.842679,1.4675825,-5.063519,-6.8177962,3.4906947999999995,1.8832042000000002
37101,14:10:02.663000,-13.380618099999998,0.08379349999999999,-5.2718053,-8.5331039,2.5084242999999997,1.3774083000000001
37102,14:10:02.673000,-13.098114,-0.7828703,-5.3555989,-9.236820199999999,1.4943888,1.1208451000000001
37103,14:10:02.682000,-12.8132162,-1.1324087,-4.776227,-9.4335184,0.6953779,0.9033771
37104,14:10:02.692000,-12.8084278,-1.9152790000000002,-4.752286,-9.223381,0.1174999,0.542967
37105,14:10:02.702000,-13.2800655,-2.7149078999999996,-4.5846992,-8.7298031,-0.17693689999999998,0.0200668
37106,14:10:02.711000,-13.7014275,-3.4953842000000006,-4.5104818,-8.0578518,-0.3492008,-0.45885119999999996
37107,14:10:02.721000,-13.6463633,-4.5487876,-4.3716245,-7.3040442,-0.4762607,-0.8534698000000001
37108,14:10:02.731000,-13.2657013,-5.626132,-3.9981451,-6.0847583,-0.7780278,-1.4460086
37109,14:10:02.751000,-11.3887281,-7.5533814,-2.9279827999999997,-6.0847583,-0.7780278,-1.4460086
37110,14:10:02.763000,-10.3329296,-8.7408552,-2.8441892,-4.9228935,-1.1213338,-1.5376382
37111,14:10:02.770000,-9.5404844,-10.285047500000001,-3.1171165000000003,-4.1641998,-1.1372163,-1.4105784
37112,14:10:02.781000,-8.633119599999999,-11.1014357,-2.6502673999999997,-1.6975281999999998,-1.1616508999999997,-0.6750973000000001
37113,14:10:02.789000,-8.0034723,-11.261840800000002,-2.983047,-1.6975281999999998,-1.1616508999999997,-0.6750973000000001
37114,14:10:02.799000,-7.369036200000001,-10.127038,-2.6861787,1.7086535,-0.8879834999999999,0.5173106
37115,14:10:02.809000,-6.6053185,-10.4765759,-2.9064360000000002,1.7086535,-0.8879834999999999,0.5173106
37116,14:10:02.818000,-5.5878267,-9.8301687,-3.4379258000000004,3.4728307999999997,-0.7254935,1.1953706
37117,14:10:02.832000,-4.4458413,-8.6977606,-3.3206151,7.6242676,0.0014356,2.3767829
37118,14:10:02.839000,-4.316559799999999,-6.3922434,-3.9335042999999996,7.6242676,0.0014356,2.3767829
37119,14:10:02.849000,-4.2782545,-4.096303,-3.3206151,11.2198172,1.2182781999999999,3.3798227
37120,14:10:02.857000,-4.3285303,-2.9208004,-2.305517,11.2198172,1.2182781999999999,3.3798227
37121,14:10:02.866000,-5.4609389,-1.5322232,-1.9296436000000001,12.298605,1.9305463,3.4213617
37122,14:10:02.878000,-6.8782454,-0.1963161,-1.1563497999999999,12.8459396,3.1644931,3.6962507000000007
37123,14:10:02.886000,-7.9627724,0.6823182,-0.8403287,12.8459396,3.1644931,3.6962507000000007
37124,14:10:02.898000,-9.7511644,2.5305624,-0.9863687,11.994394300000002,3.6446326,3.442131
37125,14:10:02.905000,-10.4478474,3.3134327000000003,0.9576395000000001,11.994394300000002,3.6446326,3.442131
37126,14:10:02.915000,-8.7719784,7.4887409,-6.7848759,11.117192300000001,3.6434108999999997,3.1892331
37127,14:10:02.925000,-12.1548386,6.8040285,3.3589206,9.9455538,3.7069408999999998,2.7628493
37128,14:10:02.934000,-12.1476574,6.990768400000001,4.1034851,8.3023272,3.3758521,2.1788627999999997
37129,14:10:02.946000,-11.776572199999999,7.618022,4.704403900000001,3.8747797,2.1309099,1.3712996000000002
37130,14:10:02.954000,-10.4239063,8.4822922,5.1305537,3.8747797,2.1309099,1.3712996000000002
37131,14:10:02.963000,-10.1557674,8.5780563,4.601458099999999,-0.37317340000000004,1.3282337,0.6309314
37132,14:10:02.974000,-9.9450855,9.2316446,4.388382900000001,-0.37317340000000004,1.3282337,0.6309314
37133,14:10:02.983000,-9.9211454,6.370697,0.1101285,-4.4146543,0.8578679,-0.0459066
37134,14:10:02.995000,-10.6968327,5.7171078,-0.1101285,-5.811090900000001,-0.030329400000000003,-0.46373809999999993
37135,14:10:03.002000,-11.0846767,4.8480501,-0.9863687,-5.811090900000001,-0.030329400000000003,-0.46373809999999993
37136,14:10:03.013000,-9.8636866,3.0979638,-1.5346173,-7.935678500000001,-1.33758,-1.1222502
37137,14:10:03.021000,-9.200521499999999,2.1092009999999997,-2.1451125,-7.935678500000001,-1.33758,-1.1222502
37138,14:10:03.032000,-9.3130436,1.4077301000000002,-3.0524758999999997,-9.2172728,-1.9447793999999998,-1.7770971999999998
37139,14:10:03.047000,-10.1342201,0.5530368,-4.613428599999999,-9.7975941,-2.0535133,-2.1216249
37140,14:10:03.052000,-10.2611074,-1.2664783000000002,-6.0618582000000005,-10.303390499999999,-2.1585822,-2.5541172000000003
37141,14:10:03.063000,-10.3233538,-3.3852558,-6.997950599999999,-10.5758362,-2.2550988,-3.0293697999999996
37142,14:10:03.069000,-9.5740013,-4.869597,-7.543805099999999,-10.5758362,-2.2550988,-3.0293697999999996
37143,14:10:03.078000,-8.1854239,-6.5239191,-7.5868988,-10.5526228,-2.575192,-3.5009574999999997
37144,14:10:03.088000,-6.3156323,-8.6091785,-7.819126600000001,-10.2142038,-2.7975466,-3.863811
37145,14:10:03.098000,-5.1832242,-10.0911264,-6.4066081,-9.547139199999998,-2.9221630000000003,-4.0372968
37146,14:10:03.110000,-5.235894200000001,-10.984125099999998,-5.3939047,-6.9937252999999995,-2.6668217,-3.5070660000000005
37147,14:10:03.118000,-6.248597599999999,-11.2331114,-5.1880121,-5.3028517,-2.1512518,-3.0806825
37148,14:10:03.128000,-6.997950599999999,-10.6489506,-4.800168,-3.3444195,-1.7615201,-2.6323078
37149,14:10:03.138000,-7.558169400000001,-9.593154,-4.1489735,-3.3444195,-1.7615201,-2.6323078
37150,14:10:03.147000,-7.5031056,-8.290763900000002,-3.4714432,-1.296801,-1.4072185,-2.1704941000000004
37151,14:10:03.159000,-6.9883742,-7.1368084000000005,-3.0261407000000005,1.8393785,-0.853775,-1.1723411
37152,14:10:03.167000,-6.1169224,-6.2940855,-2.6981492,1.8393785,-0.853775,-1.1723411
37153,14:10:03.178000,-5.654861,-5.654861,-2.6382967999999996,3.6353209000000004,-0.3882961,-0.40020809999999996
37154,14:10:03.186000,-6.0283403,-5.5662794,-3.0381112,3.6353209000000004,-0.3882961,-0.40020809999999996
37155,14:10:03.196000,-7.421706200000001,-5.168858999999999,-3.8018289,4.2229729,-0.0669813,-0.1509753
37156,14:10:03.208000,-9.2843151,-5.1233716,-4.651733900000001,4.9621191,0.5732049,0.40613330000000003
37157,14:10:03.215000,-11.266629199999999,-5.2526526,-5.4896684,4.9621191,0.5732049,0.40613330000000003
37158,14:10:03.226000,-13.1364202,-5.2478647,-6.428154900000001,5.249225599999999,1.0081406,0.6626964
37159,14:10:03.235000,-14.527391399999999,-5.6931671999999995,-7.203843099999999,5.249225599999999,1.0081406,0.6626964
37160,14:10:03.244000,-15.262379600000001,-5.7075315,-7.627598299999999,5.013432,1.0142493000000001,0.4721067
37161,14:10:03.254000,-15.042121900000001,-5.5447326,-7.708998200000001,5.013432,1.0142493000000001,0.4721067
37162,14:10:03.264000,-14.070117999999999,-4.771439099999999,-7.2756662,4.91325,0.9128457,0.19721760000000002
37163,14:10:03.275000,-12.9879856,-3.9311101,-6.4401255,4.7532034,0.554879,-0.6091239
37164,14:10:03.283000,-12.008798599999999,-2.9040418,-5.8009014,4.7532034,0.554879,-0.6091239
37165,14:10:03.293000,-11.3743629,-2.0948365,-5.0707011,4.376910700000001,0.2738812,-1.3788133999999999
37166,14:10:03.302000,-10.9506083,-1.503494,-4.512876,4.376910700000001,0.2738812,-1.3788133999999999
37167,14:10:03.312000,-10.668104199999998,-1.1012853,-4.1058793,3.8918841,0.0784045,-2.1448379
37168,14:10:03.325000,-10.471788400000001,-0.9025753000000001,-3.8497107,3.580343,-0.019333799999999998,-2.5321259
37169,14:10:03.342000,-9.8636866,-1.5920756,-3.5767834,3.580343,-0.019333799999999998,-2.5321259
37170,14:10:03.351000,-9.626670800000001,-1.8769734,-3.2823095,2.7801101000000004,-0.15983270000000002,-3.1869731
37171,14:10:03.361000,-9.370502499999999,-1.9200671999999999,-3.0093822,2.0812809,-0.2209192,-3.4007757000000005
37172,14:10:03.374000,-8.9275942,-2.1786296000000003,-2.6813905,1.7624096000000002,-0.18426729999999997,-3.4740794000000004
37173,14:10:03.380000,-8.4152575,-2.3821282000000004,-2.3414285,1.7624096000000002,-0.18426729999999997,-3.4740794000000004
37174,14:10:03.391000,-7.926860799999999,-2.6766026000000003,-2.130748,1.1210016,-0.019333799999999998,-3.4740794000000004
37175,14:10:03.400000,-7.407341499999999,-2.8513715,-1.8266973000000002,1.1210016,-0.019333799999999998,-3.4740794000000004
37176,14:10:03.410000,-6.5502539,-2.9447415,-1.2808429,0.5651147,0.3361894,-3.2297335
37177,14:10:03.419000,-5.4633335999999995,-3.3206151,-0.3112328,0.5651147,0.3361894,-3.2297335
37178,14:10:03.429000,-4.7067981,-3.6031184,1.0510093999999999,0.3610859,0.5328879,-3.0806825
37179,14:10:03.440000,-4.1130619,-3.7204294,2.9686825,0.1375094,0.9519411,-2.6530771
37180,14:10:03.448000,-3.5648129,-3.8760457,5.772172,0.1375094,0.9519411,-2.6530771
37181,14:10:03.458000,-3.1434517000000004,-4.208825599999999,8.5708742,0.1326225,1.1633003,-2.1362855
37182,14:10:03.468000,-2.6119618,-4.7498922,10.653739,0.1326225,1.1633003,-2.1362855
37183,14:10:03.478000,-1.5920756,-6.0331292,11.3959103,0.284117,0.8554245,-1.7856493000000002
37184,14:10:03.489000,-0.9887628,-8.582843800000001,10.783021000000002,0.284117,0.8554245,-1.7856493000000002
37185,14:10:03.496000,-1.6615044999999997,-12.8084278,9.150244699999998,0.28656040000000005,0.7088169,-1.6866893
37186,14:10:03.510000,-4.3596539000000005,-18.231061899999997,7.3283366999999995,0.2291391,0.7137038,-1.5193123
37187,14:10:03.516000,-8.408075300000002,-23.1341763,5.3484163,0.21814360000000002,0.8798590000000001,-1.3910307
37188,14:10:03.526000,-11.333663,-24.5035992,4.1872787,1.5828153,1.0130274,-2.0861948
37189,14:10:03.535000,-12.762940400000002,-22.9833488,3.5480542,1.5828153,1.0130274,-2.0861948
37190,14:10:03.545000,-12.9879856,-20.610796,3.3182209000000005,3.1002033,0.5414399999999999,-2.6042080000000003
37191,14:10:03.557000,-12.0973806,-18.7984638,3.6462126000000006,5.6927133,-0.6216465,-2.622534
37192,14:10:03.564000,-11.2331114,-18.1305103,3.2080922000000003,5.6927133,-0.6216465,-2.622534
37193,14:10:03.576000,-10.565157899999999,-17.3811569,2.3438227000000005,6.571136999999999,-1.2850456000000001,-2.8400017999999996
37194,14:10:03.583000,-9.214885699999998,-16.6988392,1.64714,6.571136999999999,-1.2850456000000001,-2.8400017999999996
37195,14:10:03.593000,-7.876585,-15.949485800000001,1.2880251,6.710413900000001,-1.463418,-2.7642546
37196,14:10:03.602000,-6.7369938,-14.920023,0.6416184,6.8582434999999995,-1.4609747,-2.6200905
37197,14:10:03.612000,-5.5016389000000006,-13.780431699999998,-0.8259639999999999,7.0256205000000005,-1.2911541000000002,-2.4233921
37198,14:10:03.623000,-4.0005388,-12.35355,-2.4036752999999997,7.3872523,-0.5495644000000001,-2.0348821
37199,14:10:03.632000,-2.4922566,-10.847661,-4.0675735,7.3872523,-0.5495644000000001,-2.0348821
37200,14:10:03.642000,-1.3694245,-9.2603741,-5.33884,7.522864299999999,-0.0645378,-1.8723921000000001
37201,14:10:03.655000,-0.6344361999999999,-7.7257565999999995,-6.2150807,7.6108289000000005,0.4901273,-1.7123456000000001
37202,14:10:03.661000,0.1268872,-6.0307345,-7.5485935,7.6975713,1.0166926,-1.5303079
37203,14:10:03.674000,0.7852644,-3.9023809000000003,-8.8007069,7.7525492,1.7362914,-1.2529752
37204,14:10:03.681000,1.4436415,-1.4604002,-9.576395,7.7525492,1.7362914,-1.2529752
37205,14:10:03.690000,1.3311188,1.1683203000000002,-9.212492,7.6963496,1.9183290000000002,-1.1943322
37206,14:10:03.700000,3.7156413,2.5975973999999997,-9.5835772,7.4923210000000005,1.9891894,-1.2334276000000002
37207,14:10:03.710000,3.8904104,5.0778837,-8.7360659,6.9229951000000005,1.7949343,-1.47533
37208,14:10:03.722000,3.6869121,7.2876363,-9.1191216,5.1417136,2.0869277,-1.9628
37209,14:10:03.729000,2.9399533,9.4040203,-10.256319,5.1417136,2.0869277,-1.9628
37210,14:10:03.739000,1.7022042000000002,10.6393747,-12.2410269,3.7196202000000005,2.2420874,-2.2376892999999995
37211,14:10:03.749000,4.0579977,7.1535668,-11.0894651,2.1460326000000003,2.0930364,-2.3720793999999996
37212,14:10:03.758000,3.7371883,4.0867267,-10.8117504,0.24502159999999998,1.4174198999999998,-1.9347003
37213,14:10:03.771000,1.9966784,1.1778966,-12.3798847,-2.1556767999999997,1.1486393999999998,-1.059942
37214,14:10:03.778000,0.1580105,-0.8714519000000001,-11.932188,-4.720086599999999,1.476063,-0.5602548
37215,14:10:03.791000,-1.1515615,-2.9878352,-11.419851300000001,-8.3486233,2.4925417999999997,-0.13875810000000002
37216,14:10:03.796000,-4.6660986,-3.2607625,-10.783021000000002,-8.3486233,2.4925417999999997,-0.13875810000000002
37217,14:10:03.807000,-10.783021000000002,-3.2894917,-10.6657104,-9.391980199999999,3.7069408999999998,1.0841931
37218,14:10:03.816000,-15.6741638,-3.6773357000000004,-8.2931576,-9.391980199999999,3.7069408999999998,1.0841931
37219,14:10:03.838000,-26.0070934,-6.0714345000000005,-8.8007069,-8.974148800000002,5.0642824,4.661417
37220,14:10:03.845000,-33.5628738,-7.550987700000001,-13.311188699999999,-8.974148800000002,5.0642824,4.661417
37221,14:10:03.855000,-42.4018822,-9.6218834,-17.9341946,-8.2838717,5.780216200000001,6.9423857
37222,14:10:03.865000,-47.8532448,-12.3224258,-22.9211025,-8.2838717,5.780216200000001,6.9423857
37223,14:10:03.874000,-45.6051865,-14.625549300000001,-24.9321442,-7.6571240000000005,5.7240167,7.5544724
37224,14:10:03.887000,-37.790847799999995,-15.5664301,-19.7513142,-4.5514879,3.5688855999999998,7.4933857999999995
37225,14:10:03.893000,-29.1577282,-15.267168,-12.1261101,-4.5514879,3.5688855999999998,7.4933857999999995
37226,14:10:03.905000,-21.2188988,-12.882644699999998,-3.7778878,0.5247977,3.1021848,4.219151
37227,14:10:03.913000,-18.590175600000002,-8.8701363,-3.8209815000000003,0.5247977,3.1021848,4.219151
37228,14:10:03.923000,-19.794408800000003,-3.5265076,-6.9285220999999995,6.7336268,6.0037923,0.9681287000000001
37229,14:10:03.932000,-23.6680603,1.1180441,-6.9285220999999995,6.7336268,6.0037923,0.9681287000000001
37230,14:10:03.941000,-11.678414300000002,15.836962699999997,-26.031036399999998,9.458083199999999,6.7551559999999995,0.6052751999999999
37231,14:10:03.954000,-29.8376522,6.811211099999999,-5.5614915,11.9675159,6.4497237,-1.8003099999999999
37232,14:10:03.962000,-30.4098415,7.2636956999999995,-2.159477,11.9675159,6.4497237,-1.8003099999999999
37233,14:10:03.971000,-27.2951202,1.1228323,-1.7093865000000001,8.8521061,3.1290629,-4.698252200000001
37234,14:10:03.981000,-24.9512978,-2.5042272,3.4738371,8.8521061,3.1290629,-4.698252200000001
37235,14:10:03.991000,-20.7161369,-1.3718187,1.2952073999999998,7.5472989,0.9971450000000001,-5.063549500000001
37236,14:10:04.006000,-18.1017799,7.0386505,7.115261599999999,7.5766201,-2.5690832,-2.8070152000000004
37237,14:10:04.009000,-10.550792699999999,13.210637099999998,16.004550899999998,7.5766201,-2.5690832,-2.8070152000000004
37238,14:10:04.020000,-5.987640900000001,18.214304000000002,21.2165031,7.345713099999999,-3.5574625,-0.9011173000000001
37239,14:10:04.029000,-3.2847035000000004,19.0115376,19.7824383,7.345713099999999,-3.5574625,-0.9011173000000001
37240,14:10:04.038000,-5.889483,19.1264534,13.708608600000002,6.6419973,-2.7706685,-1.2700795
37241,14:10:04.051000,-5.8631482,14.8745356,9.7056761,4.6346955,-2.4994447,0.0273971
37242,14:10:04.058000,-5.2550468,7.9388312999999995,5.0084542999999995,2.3060791000000003,-2.6814823,0.6064969
37243,14:10:04.070000,-4.4219003,5.2789874,2.5688679,-2.4525571,-2.1060476,-0.27314829999999996
37244,14:10:04.078000,-2.2432703999999997,3.1913337999999998,0.9839745999999999,-2.4525571,-2.1060476,-0.27314829999999996
37245,14:10:04.089000,-2.1211715,1.9918901000000002,-0.16758689999999998,-4.8935723,-2.1439214,-1.1491283
37246,14:10:04.096000,-2.4443748,0.7445647,-1.0725563,-4.8935723,-2.1439214,-1.1491283
37247,14:10:04.107000,-2.3725517000000003,0.3064446,-0.9839745999999999,-5.5594149,-1.9313405,-1.163789
37248,14:10:04.118000,-2.7484252000000002,-0.8044171999999999,-1.8697912,-6.3828602,-1.4780788,-1.1540152
37249,14:10:04.126000,-3.6940942000000003,-2.0445604,-3.5073547,-6.3828602,-1.4780788,-1.1540152
37250,14:10:04.136000,-4.3812003,-2.8537657000000003,-2.8848889,-6.627206299999999,-1.2459502,-0.7606184
37251,14:10:04.145000,-4.8121386,-3.8353462,-4.1034851,-6.627206299999999,-1.2459502,-0.7606184
37252,14:10:04.155000,-5.197588400000001,-3.9335042999999996,-4.6900395999999995,-6.3547606,-1.3082583,-0.5553678000000001
37253,14:10:04.173000,-5.9038477,-4.0508150999999994,-4.3716245,-5.1990047,-1.5733738000000002,0.0432796
37254,14:10:04.176000,-4.8384733,-4.5679407,-5.3603868,-5.1990047,-1.5733738000000002,0.0432796
37255,14:10:04.188000,-5.018031099999999,-5.2550468,-5.046760099999999,-4.0053749,-1.8238282,0.7091221
37256,14:10:04.195000,-5.5423384,-5.9182119,-4.8169265,-3.2307987000000002,-1.6344602,1.2747829
37257,14:10:04.203000,-6.2797208,-6.3180265,-4.5655465,-3.2307987000000002,-1.6344602,1.2747829
37258,14:10:04.212000,-7.4576173,-6.306056,-3.9047748999999996,-2.3829184,-1.4475354999999999,1.8428871999999998
37259,14:10:04.223000,-8.597209,-6.9548569,-3.6462126000000006,-1.4470737,-1.27405,2.5136166
37260,14:10:04.234000,-9.4662657,-7.8574319,-3.3948319,-0.6297366999999999,-0.9991608000000001,3.1867895
37261,14:10:04.243000,-10.433482199999998,-8.477503800000001,-3.4690489999999996,0.22058699999999998,-0.6595201,3.8159802000000003
37262,14:10:04.253000,-11.4677334,-8.5493269,-3.8736517,2.3292921000000004,0.17858629999999998,5.1256742
37263,14:10:04.262000,-12.2673616,-8.520597500000001,-4.2878308,2.3292921000000004,0.17858629999999998,5.1256742
37264,14:10:04.272000,-12.9305267,-8.7695837,-4.9031138,3.5278087,0.5866439,5.724321400000001
37265,14:10:04.282000,-13.2968245,-9.2699499,-6.248597599999999,4.6750126,0.9238413000000001,6.1421532999999995
37266,14:10:04.292000,-13.2752781,-9.4519024,-7.613233999999999,5.758687,1.2268302,6.320525599999999
37267,14:10:04.302000,-12.7198467,-9.1406689,-9.0832109,7.838070399999999,1.6837571,5.9503417
37268,14:10:04.311000,-11.3360577,-7.529440400000001,-9.0592699,7.838070399999999,1.6837571,5.9503417
37269,14:10:04.320000,-11.486886,-5.0922480000000006,-11.7526312,8.7482586,1.7191873,5.484862799999999
37270,14:10:04.332000,-9.178975099999999,-4.8911432999999995,-8.1423302,9.5032873,1.8499122,4.9692926
37271,14:10:04.339000,-11.386334399999999,-1.3071779,-9.9067812,10.2265511,2.1309099,4.318110900000001
37272,14:10:04.351000,-10.3664484,-0.8187817,-6.815999000000001,9.4348707,1.4369676000000002,2.9338915
37273,14:10:04.359000,-10.8524504,0.18434560000000003,-5.8200541,9.4348707,1.4369676000000002,2.9338915
37274,14:10:04.369000,-11.2259293,0.8379346,-5.044365900000001,8.3780746,0.9531628000000001,2.1385457999999997
37275,14:10:04.379000,-11.7478428,1.3957596,-3.9191399,8.3780746,0.9531628000000001,2.1385457999999997
37276,14:10:04.387000,-11.5778618,1.4388534,-2.9184062,7.513090099999999,0.6501739000000001,1.6791754
37277,14:10:04.400000,-10.522064199999999,0.82357,-2.039772,5.364068,-0.0938593,0.6113838
37278,14:10:04.407000,-9.933116,0.34714429999999996,-1.7476921000000003,5.364068,-0.0938593,0.6113838
37279,14:10:04.427000,-9.0329351,-0.2130748,-0.509943,4.2547379,-0.352866,0.19721760000000002
37280,14:10:04.436000,-8.6474848,-0.7325941999999999,-0.43333190000000005,2.4795647,-0.7645888000000001,-0.4124255
37281,14:10:04.448000,-8.664242699999999,-1.2521136,-0.2154689,1.6500105,-0.8769879,-0.7215229999999999
37282,14:10:04.455000,-8.937171000000001,-1.7620566000000002,-0.557825,0.7862477,-0.9197484,-0.8950085999999999
37283,14:10:04.469000,-9.341773,-2.2265117,-0.9001811,-0.7934484,-0.9209700999999999,-1.0550551000000001
37284,14:10:04.475000,-9.641036,-2.6143558,-1.4939176,-0.7934484,-0.9209700999999999,-1.0550551000000001
37285,14:10:04.485000,-9.617094999999999,-2.789125,-2.0445604,-1.486169,-0.8916487,-1.1088111
37286,14:10:04.495000,-9.4327488,-2.619144,-2.5832324,-2.1324639,-0.8830966,-1.1943322
37287,14:10:04.504000,-8.9204121,-2.6550555,-3.270339,-3.306546,-0.8989790999999999,-1.3995829
37288,14:10:04.516000,-8.5086269,-2.3749461,-3.7419762999999997,-3.7989028,-0.9246353999999999,-1.5009863
37289,14:10:04.523000,-7.946013499999999,-2.5568974,-4.1633377000000005,-3.7989028,-0.9246353999999999,-1.5009863
37290,14:10:04.533000,-7.390583,-2.3964927000000005,-4.3596539000000005,-4.1678648,-0.9490700000000001,-1.6036116000000002
37291,14:10:04.543000,-6.7274175000000005,-2.7532134,-4.512876,-4.4415321,-0.9759479999999999,-1.7282279999999999
37292,14:10:04.552000,-6.2581739,-3.3325856,-4.852837999999999,-4.6052442000000005,-0.9612873,-1.8797225
37293,14:10:04.565000,-5.9517293,-4.2184019,-4.9246612,-4.464745,-0.8867617,-1.9603566000000003
37294,14:10:04.572000,-6.1001635,-4.479359099999999,-4.9150844000000005,-4.464745,-0.8867617,-1.9603566000000003
37295,14:10:04.582000,-6.1480455,-4.577516999999999,-4.8600205999999995,-4.094561100000001,-0.8000189999999999,-1.9127091
37296,14:10:04.591000,-6.1073461,-4.6493402,-4.704403900000001,-3.5741045,-0.6705156999999999,-1.868727
37297,14:10:04.601000,-6.2845092000000005,-4.759468599999999,-4.6708865,-2.5478517999999997,-0.39929169999999997,-1.7245629
37298,14:10:04.611000,-6.717841099999999,-5.018031099999999,-4.8169265,-2.5478517999999997,-0.39929169999999997,-1.7245629
37299,14:10:04.620000,-7.167931599999999,-5.3986925999999995,-4.8887496,-2.0811512,-0.2612363,-1.5449686000000002
37300,14:10:04.633000,-7.7736387,-5.6668315,-5.343628400000001,-0.966934,0.0185398,-1.0501681999999999
37301,14:10:04.640000,-8.1495123,-6.006794,-5.6141615,-0.966934,0.0185398,-1.0501681999999999
37302,14:10:04.650000,-8.5469332,-6.0211587,-5.7410488,0.4380549,0.29709409999999997,-0.4380818
37303,14:10:04.660000,-8.6714258,-5.9517293,-5.6931671999999995,0.4380549,0.29709409999999997,-0.4380818
37304,14:10:04.669000,-8.8605595,-5.6955609,-5.4920626,1.1918619,0.43637129999999996,-0.1131017
37305,14:10:04.682000,-8.9946289,-5.022819,-5.1760416,2.5174383999999996,0.7369167,0.4647763
37306,14:10:04.688000,-8.9395647,-4.2806487,-4.723557,2.5174383999999996,0.7369167,0.4647763
37307,14:10:04.698000,-8.9156237,-3.8425286,-4.4530234,2.9328263,0.8774155999999999,0.5906144
37308,14:10:04.708000,-9.128699300000001,-3.7587349000000003,-4.4434476,3.0965381,1.0179145,0.6077186
37309,14:10:04.717000,-9.423173,-3.8114052000000003,-4.3931708,3.0672166,1.1437526000000002,0.6211576
37310,14:10:04.726000,-9.597942399999999,-3.8114052000000003,-4.4290824,3.0000215,1.2329388000000001,0.6248228
37311,14:10:04.737000,-9.6889181,-3.7300057,-4.4817529,2.9707,1.2854731000000001,0.5588495
37312,14:10:04.748000,-9.789469699999998,-3.6390300000000004,-4.555970200000001,2.9340482000000003,1.3037992,0.28029509999999996
37313,14:10:04.756000,-9.8636866,-3.4786254999999997,-4.632581200000001,2.9340482000000003,1.3037992,0.28029509999999996
37314,14:10:04.765000,-9.7918644,-3.2870975,-4.5679407,2.8998396,1.2732558,0.1007009
37315,14:10:04.776000,-9.6649771,-3.0261407000000005,-4.534422900000001,2.8656313,1.223165,-0.09966269999999999
37316,14:10:04.785000,-9.559636099999999,-2.8585539,-4.3716245,2.70925,1.0961051000000002,-0.5541461
37317,14:10:04.797000,-9.5692129,-2.7699722999999996,-4.256707700000001,2.5760813,1.0350187,-0.7520663000000001
37318,14:10:04.805000,-9.5500603,-2.8705244,-4.115455600000001,2.5760813,1.0350187,-0.7520663000000001
37319,14:10:04.816000,-9.4926023,-2.9519238,-3.9957507000000003,2.2877533,0.9397238000000001,-1.0733811000000002
37320,14:10:04.823000,-9.5189371,-3.0812049,-3.9694157,2.2877533,0.9397238000000001,-1.0733811000000002
37321,14:10:04.832000,-9.471055,-3.2009101,-3.9933567,2.1655803,0.9128457,-1.1772281
37322,14:10:04.846000,-9.480630900000001,-3.2847035000000004,-3.9478687999999993,2.0226381,0.8994066999999999,-1.2749663999999998
37323,14:10:04.852000,-9.487813000000001,-3.3900437000000005,-3.9670214999999995,2.0226381,0.8994066999999999,-1.2749663999999998
37324,14:10:04.863000,-9.5045719,-3.4211669000000002,-4.0005388,1.9798773999999997,0.9311716999999998,-1.2554188
37325,14:10:04.872000,-9.506965600000001,-3.4929900000000003,-4.0460272,1.9798773999999997,0.9311716999999998,-1.2554188
37326,14:10:04.882000,-9.5452719,-3.5672072999999997,-4.115455600000001,1.985986,0.9507193000000002,-1.208993
37327,14:10:04.892000,-9.552454,-3.6294537000000004,-4.1705198,2.0140860000000003,0.9690451999999999,-1.1442413
37328,14:10:04.902000,-9.5452719,-3.5624189,-4.1441851000000005,2.0617332,0.9837060999999999,-1.0709376
37329,14:10:04.912000,-9.487813000000001,-3.5480542,-4.1465788,2.1961236,0.9947016,-0.8950085999999999
37330,14:10:04.921000,-9.4399309,-3.5456602999999998,-4.1178498,2.1961236,0.9947016,-0.8950085999999999
37331,14:10:04.940000,-9.4255667,-3.4714432,-4.1058793,2.2804229,0.9898146999999999,-0.8082658
37332,14:10:04.950000,-9.485419300000002,-3.3684969,-4.0771503,2.4465779999999997,0.970267,-0.6812059
37333,14:10:04.960000,-9.5356951,-3.0021996,-3.9765980000000005,2.5369861,0.9604931000000001,-0.6201194999999999
37334,14:10:04.969000,-9.427961300000002,-2.6502673999999997,-3.7778878,2.6151767,0.9446107,-0.5871328
37335,14:10:04.982000,-9.3968382,-2.422828,-3.6510005,2.5113297,0.9030719000000001,-0.6482193
37336,14:10:04.988000,-9.480630900000001,-2.4156458,-3.5241132000000004,2.5113297,0.9030719000000001,-0.6482193
37337,14:10:04.998000,-9.463872,-2.4324043,-3.4307434999999997,2.0934982,0.8639764999999999,-0.6775408
37338,14:10:05.007000,-9.4327488,-2.3940987999999996,-3.270339,2.0934982,0.8639764999999999,-0.6775408
37339,14:10:05.017000,-9.415989900000001,-2.2241178,-3.0716287999999996,1.8809173,0.848094,-0.7203013
37340,14:10:05.029000,-9.2867088,-2.0230136,-2.8753126,1.3433563999999998,0.8138856,-0.8864565000000001
37341,14:10:05.036000,-9.1406689,-2.0062547,-2.7412429,1.3433563999999998,0.8138856,-0.8864565000000001
37342,14:10:05.047000,-8.9419594,-1.6423517,-2.7340607999999995,0.5150238,0.7503557,-1.1540152
37343,14:10:05.056000,-8.8174658,-1.6351695,-2.6119618,0.5150238,0.7503557,-1.1540152
37344,14:10:05.066000,-8.6786079,-1.8602147,-2.8010955,0.10574449999999999,0.7185906999999999,-1.2468666000000002
37345,14:10:05.078000,-8.5660849,-2.0158311999999996,-2.8322186,-0.6358453000000001,0.6709433000000001,-1.4191303999999998
37346,14:10:05.085000,-8.3937101,-2.039772,-2.8824949,-0.6358453000000001,0.6709433000000001,-1.4191303999999998
37347,14:10:05.096000,-8.3961039,-2.1283537999999997,-2.9423472999999998,-1.0939938999999999,0.6269610999999999,-1.5706248999999999
37348,14:10:05.105000,-8.216547,-2.159477,-2.9758646,-1.0939938999999999,0.6269610999999999,-1.5706248999999999
37349,14:10:05.114000,-8.0896597,-2.1738417,-2.8441892,-1.2870271,0.5866439,-1.6194941
37350,14:10:05.127000,-8.0729008,-2.1451125,-2.9375593999999996,-1.4653996,0.5389965,-1.6610328999999997
37351,14:10:05.134000,-7.967560300000001,-2.2265117,-3.0285349,-1.6254462,0.4937925,-1.6524808000000002
37352,14:10:05.146000,-7.907708199999999,-2.1427186000000003,-3.0117762000000003,-1.9235482,0.3789499,-1.6084986000000001
37353,14:10:05.153000,-7.8071561,-2.0373781,-3.0788109,-1.9235482,0.3789499,-1.6084986000000001
37354,14:10:05.162000,-7.701815600000001,-1.9751314999999998,-3.1985159,-2.0518297999999997,0.32397209999999993,-1.5694032
37355,14:10:05.173000,-8.1902122,-0.6895005,-3.5336897000000005,-2.1972156000000003,0.2604422,-1.507095
37356,14:10:05.182000,-8.6474848,0.5674013000000001,-3.0309291000000003,-2.3218319,0.20057750000000002,-1.4521171999999998
37357,14:10:05.195000,-6.171986599999999,-3.7467644,-3.6917002,-3.192925,-0.17693689999999998,-1.70135
37358,14:10:05.201000,-7.618022,-3.7060647000000007,-4.0244799,-3.192925,-0.17693689999999998,-1.70135
37359,14:10:05.212000,-8.7624006,-3.9550512,-5.080277400000001,-3.4055059,-0.0877507,-0.6824276999999999
37360,14:10:05.221000,-7.7449093,-3.4355318999999995,-4.2974076,-3.4055059,-0.0877507,-0.6824276999999999
37361,14:10:05.231000,-7.1799021,-3.2176687999999998,-4.1202440000000005,-2.7848675,-0.0559857,-0.5883545
37362,14:10:05.243000,-7.455223599999999,-3.0788109,-4.1130619,-2.0860381,-0.2526842,-0.0935541
37363,14:10:05.250000,-7.4767703999999995,-3.5241132000000004,-4.1106677000000005,-2.0860381,-0.2526842,-0.0935541
37364,14:10:05.263000,-7.342700999999999,-4.0675735,-4.1346083,-1.7439539000000002,-0.3198793,0.6064969
37365,14:10:05.270000,-7.237360499999999,-4.5894876,-4.1657319,-1.7439539000000002,-0.3198793,0.6064969
37366,14:10:05.279000,-7.0218916,-5.018031099999999,-4.0364504,-1.4739517,-0.33209659999999996,1.0194415000000001
37367,14:10:05.289000,-6.8519106,-5.556703099999999,-4.0867267,-1.0463464,-0.31132719999999997,1.4934725
37368,14:10:05.299000,-6.9548569,-6.3635144,-3.8137991,-0.4367034000000001,-0.2612363,2.015151
37369,14:10:05.312000,-7.1535668,-7.2277842,-3.5767834,1.3030393,-0.0975245,3.2552062999999998
37370,14:10:05.318000,-7.1296258,-7.7616682,-3.4738371,2.3512831000000003,0.051526499999999996,3.8391931000000006
37371,14:10:05.327000,-7.1248379,-8.0274134,-3.2176687999999998,2.3512831000000003,0.051526499999999996,3.8391931000000006
37372,14:10:05.337000,-7.2565136,-7.948408099999999,-3.1219049,4.6896734,0.6306262,4.7958074
37373,14:10:05.347000,-7.766456599999999,-7.8382797,-2.6430849999999997,5.7342525,1.0228014,5.2502904
37374,14:10:05.356000,-8.9419594,-6.9141569,-3.0812049,5.7342525,1.0228014,5.2502904
37375,14:10:05.365000,-8.9922352,-7.232572599999999,-2.4802864,6.4147553,1.3196816,5.710882700000001
37376,14:10:05.377000,-11.8364239,-6.3419676,-2.640691,6.9193296,1.9317679,6.574644999999999
37377,14:10:05.386000,-14.982270199999999,-4.7546802,0.35432659999999994,6.9193296,1.9317679,6.574644999999999
37378,14:10:05.395000,-25.5737629,-8.4703207,5.3053231,6.6517710999999995,2.1357967999999996,6.840982400000001
37379,14:10:05.405000,-24.3431969,-23.859588600000002,6.586165400000001,5.510675900000001,1.7827169999999999,5.9381242
37380,14:10:05.415000,-4.5009055,-7.230177900000001,-13.4596233,1.0000504000000001,-1.223959,-0.6054586999999999
37381,14:10:05.426000,-1.9272496,-20.210981399999998,12.047104800000001,0.6530793,-1.327806,-1.7416669999999999
37382,14:10:05.434000,-9.0903931,-14.398110399999998,4.1346083,0.6530793,-1.327806,-1.7416669999999999
37383,14:10:05.444000,-9.3082561,-13.2489424,2.3749461,-0.8056656999999999,0.4742448,-0.5150507000000001
37384,14:10:05.454000,-9.243615199999999,-8.9850531,0.3208092,-0.8056656999999999,0.4742448,-0.5150507000000001
37385,14:10:05.463000,-8.0657187,-7.13202,-0.8762401,0.7068354,0.39971940000000006,-0.6983102
37386,14:10:05.476000,-8.022625,-5.767384099999999,-1.3502717,1.3690127,0.3361894,-0.48328580000000004
37387,14:10:05.483000,-7.550987700000001,-4.730739099999999,-2.2624232999999996,1.3690127,0.3361894,-0.48328580000000004
37388,14:10:05.493000,-7.13202,-4.137002900000001,-2.9040418,2.6322807999999998,0.1162781,0.0200668
37389,14:10:05.502000,-6.8183932,-3.9933567,-3.3373737,2.6322807999999998,0.1162781,0.0200668
37390,14:10:05.512000,-6.4927959,-3.4044084999999997,-3.3589206,3.9993961000000002,-0.0645378,0.4537807
37391,14:10:05.524000,-6.576589599999999,-3.0141702,-3.6917002,3.9993961000000002,-0.0645378,0.4537807
37392,14:10:05.531000,-6.9740095,-2.8178542,-3.7419762999999997,4.4343319,-0.07308989999999999,0.6370401
37393,14:10:05.541000,-7.4336767,-2.9208004,-4.0125093000000005,4.682343,-0.048655300000000005,0.7787607
37394,14:10:05.551000,-7.7161802999999995,-3.1386635,-3.7563410000000004,4.8631592,-0.0315511,0.8936033000000001
37395,14:10:05.572000,-7.8406734,-3.3565266000000005,-3.6629709999999998,5.5265584,-0.052320500000000006,1.1281754
37396,14:10:05.580000,-8.082477599999999,-3.636636,-3.9765980000000005,5.5265584,-0.052320500000000006,1.1281754
37397,14:10:05.591000,-8.441592199999999,-4.0771503,-4.3069835,6.1484184,0.014874600000000002,1.3102131000000001
37398,14:10:05.599000,-8.1997881,-4.6158223,-4.122638200000001,6.1484184,0.014874600000000002,1.3102131000000001
37399,14:10:05.608000,-8.101630199999999,-5.2335,-4.2926192,6.593128200000001,0.0588568,1.3028826999999998
37400,14:10:05.619000,-8.2237291,-5.4657273,-4.235160400000001,7.029285400000001,0.17980810000000003,1.2589004
37401,14:10:05.628000,-8.137541800000001,-4.5894876,-3.3469501000000004,7.4617777,0.3532937,1.3309824
37402,14:10:05.639000,-8.424833300000001,-3.7395822999999995,-2.9519238,8.4745913,0.7833424,1.5154636000000001
37403,14:10:05.648000,-8.980263699999998,-2.9519238,-2.6789966,8.4745913,0.7833424,1.5154636000000001
37404,14:10:05.657000,-8.8007069,-2.7699722999999996,-2.7532134,8.527125400000001,0.9482759,1.6840624
37405,14:10:05.666000,-8.427228,-2.8417952,-2.837007,8.436717999999999,1.0533445,1.7207142
37406,14:10:05.677000,-8.400893199999999,-3.0883875,-2.7460313,8.2278023,1.0667837,1.5741067
37407,14:10:05.686000,-7.9316492,-7.6419630000000005,-2.7101197,7.9309216000000005,1.0924399,1.3847386000000002
37408,14:10:05.695000,-10.5172758,-6.4305490999999995,-6.1025577,7.552185499999999,1.1046572000000001,1.7537009
37409,14:10:05.706000,-12.8132162,2.3103054,-4.852837999999999,7.9199262,0.6123003,2.5123949
37410,14:10:05.716000,-8.2428818,0.8379346,-0.8020231,7.9199262,0.6123003,2.5123949
37411,14:10:05.725000,-10.1844959,2.2696054,-1.4292768999999999,6.9156647,0.24455970000000002,0.5796188
37412,14:10:05.738000,-10.3927832,1.8961263,-0.7182297,6.9156647,0.24455970000000002,0.5796188
37413,14:10:05.744000,-9.7990456,1.4771589,-0.2465922,5.993258999999999,0.139491,0.7091221
37414,14:10:05.756000,-8.4344101,0.5626131999999999,0.8882107,4.4563231,-0.3369835,-0.29758290000000004
37415,14:10:05.764000,-8.1614828,-0.122099,0.9911568999999999,4.4563231,-0.3369835,-0.29758290000000004
37416,14:10:05.774000,-8.4846859,-0.4907902,1.1563497999999999,3.3579881,-0.1378416,-0.8534698000000001
37417,14:10:05.784000,-8.5660849,-0.5027608,1.26169,3.3579881,-0.1378416,-0.8534698000000001
37418,14:10:05.793000,-8.5397501,-0.047882,1.8123327,3.138077,-0.0401032,-0.8339221
37419,14:10:05.805000,-8.558902699999999,0.7589293,2.3462167000000003,3.0745471,0.08695660000000001,-0.9377690999999999
37420,14:10:05.812000,-8.4487743,1.4173065,2.5999912999999997,3.0745471,0.08695660000000001,-0.9377690999999999
37421,14:10:05.822000,-8.5900259,1.9128848000000003,2.6119618,3.0195692000000003,0.1346041,-0.9328822
37422,14:10:05.832000,-8.707337400000002,1.1515615,0.35911479999999996,2.8864007000000003,0.1712559,-0.8595784
37423,14:10:05.841000,-9.5835772,2.7699722999999996,2.1187775,2.938935,0.0906218,-0.6164543
37424,14:10:05.854000,-10.285047500000001,4.177702399999999,2.4156458,2.938935,0.0906218,-0.6164543
37425,14:10:05.860000,-9.9833918,4.457811799999999,2.9495296000000004,3.3066757000000004,0.0576351,-0.5419288000000001
37426,14:10:05.874000,-9.4758434,3.1003580000000004,2.4443748,2.8839571,0.0832914,-0.4283079000000001
37427,14:10:05.880000,-8.597209,0.6559831,1.6112285,2.8839571,0.0832914,-0.4283079000000001
37428,14:10:05.890000,-8.348222699999999,-0.4237555,1.2329608,1.4410948000000001,-0.12073740000000001,-0.1668578
37429,14:10:05.899000,-8.3937101,0.0023940999999999997,0.9241222,1.4410948000000001,-0.12073740000000001,-0.1668578
37430,14:10:05.909000,-8.4487743,0.1268872,0.6751359,1.2162966,-0.17815870000000003,-0.14486670000000001
37431,14:10:05.921000,-9.0784216,0.7541412,0.3447502,0.9914984,-0.3064403,0.005406
37432,14:10:05.929000,-9.9546633,0.9432749,0.6511949,0.9914984,-0.3064403,0.005406
37433,14:10:05.939000,-11.6065912,1.1707143,1.0007333,0.49181099999999994,-0.2551276,0.35848579999999997
37434,14:10:05.948000,-13.301612900000002,1.4268829,1.2138082000000001,0.49181099999999994,-0.2551276,0.35848579999999997
37435,14:10:05.957000,-14.649490400000001,1.4580061000000002,1.2784487,-0.1508187,-0.1561675,0.4647763
37436,14:10:05.970000,-15.3916607,1.5729228000000002,1.3718187,-2.3071711,0.0955087,0.5551842
37437,14:10:05.976000,-15.269561800000002,1.3718187,0.9696100000000001,-2.3071711,0.0955087,0.5551842
37438,14:10:05.988000,-14.666249300000002,1.2760546,0.4740316,-5.2845254,0.2164599,0.47332840000000004
37439,14:10:05.996000,-13.734945300000001,1.1060736,-0.5410663,-5.2845254,0.2164599,0.47332840000000004
37440,14:10:06.006000,-12.7964582,0.7876585,-1.7117807,-6.8312349,0.1700342,0.3291643
37441,14:10:06.016000,-11.6161671,0.28489770000000003,-2.7460313,-8.2215633,0.0771828,0.0701577
37442,14:10:06.024000,-10.1390076,-0.46445519999999996,-3.4594727,-9.272250199999998,-0.0853072,-0.2658179
37443,14:10:06.039000,-9.3489561,-0.7685057,-3.6390300000000004,-9.9759665,-0.3846309,-1.0037425
37444,14:10:06.045000,-8.257247,-1.0486152,-3.0788109,-9.9759665,-0.3846309,-1.0037425
37445,14:10:06.055000,-7.776032400000001,-1.1300146999999998,-2.4371924,-8.8996229,-0.3760788,-1.6317114
37446,14:10:06.073000,-6.9117632,-1.2664783000000002,-1.4220946,-8.8996229,-0.3760788,-1.6317114
37447,14:10:06.085000,-6.583771700000001,-1.7069923999999999,-1.5609524,-7.0804677,-0.4469391,-2.0996337000000005
37448,14:10:06.092000,-6.4305490999999995,-2.1858122000000004,-1.9392200000000002,-6.6907363,-0.4762607,-2.0727558
37449,14:10:06.103000,-6.6675649,-2.130748,-2.1690536,-6.3034482,-0.5190212000000001,-1.9774609
37450,14:10:06.112000,-6.5263127999999995,-2.422828,-2.4371924,-6.3034482,-0.5190212000000001,-1.9774609
37451,14:10:06.122000,-6.763329,-3.1626046000000003,-2.786731,-5.9919071,-0.5886598000000001,-1.9847912
37452,14:10:06.135000,-7.730544999999999,-3.3828616,-3.1841512,-5.4958849,-0.8562185,-1.6744720000000002
37453,14:10:06.141000,-8.300340700000001,-3.4714432,-3.3230089999999994,-5.4958849,-0.8562185,-1.6744720000000002
37454,14:10:06.153000,-8.5517206,-3.6677592000000003,-3.5360837,-4.9790931,-1.2935976999999999,-1.358044
37455,14:10:06.161000,-8.9299879,-3.6174831,-3.4642611000000003,-4.9790931,-1.2935976999999999,-1.358044
37456,14:10:06.170000,-9.3154383,-3.4068023999999997,-3.4475021,-4.511170900000001,-1.7529678,-0.9915252
37457,14:10:06.180000,-9.4973898,-3.44032,-3.299068,-4.511170900000001,-1.7529678,-0.9915252
37458,14:10:06.190000,-9.9402981,-3.1721807,-3.2056982999999994,-4.424428,-1.9618835,-0.9426559999999999
37459,14:10:06.202000,-10.071972800000001,-2.7795486,-3.0524758999999997,-4.5392709,-2.2819769,-0.8070440999999999
37460,14:10:06.209000,-9.7391939,-2.8226426,-3.0716287999999996,-4.5392709,-2.2819769,-0.8070440999999999
37461,14:10:06.219000,-9.820592900000001,-2.8920712,-3.2104863999999997,-5.2307695999999995,-2.4798970000000002,-0.9145563
37462,14:10:06.228000,-10.127038,-3.1721807,-3.6869121,-5.2307695999999995,-2.4798970000000002,-0.9145563
37463,14:10:06.238000,-9.7368002,-4.6780691,-4.1178498,-5.7011351999999995,-2.4860055,-0.947543
37464,14:10:06.250000,-10.428693800000001,-4.6469455,-4.601458099999999,-6.1629491,-2.4921142999999994,-1.0367292
37465,14:10:06.257000,-10.5124884,-4.8312917,-4.9438138,-6.4341731,-2.2783117,-0.8717958
37466,14:10:06.270000,-9.8325644,-5.1616769,-4.781014900000001,-6.275348200000001,-2.176908,-1.0978156000000001
37467,14:10:06.277000,-9.1358814,-5.2598348,-4.1657319,-6.275348200000001,-2.176908,-1.0978156000000001
37468,14:10:06.286000,-8.417651199999998,-5.209559,-3.636636,-6.0334458,-2.0522916,-1.2199886
37469,14:10:06.296000,-7.6515393,-5.2885642,-3.4020143,-5.844077599999999,-1.8849146,-1.2578622
37470,14:10:06.306000,-7.395371000000001,-5.3771458,-3.44032,-5.7096872,-1.7102075,-1.3323877
37471,14:10:06.321000,-7.2110256999999995,-5.4058752,-3.6893062999999993,-5.1476917,-1.3583493,-1.3091747999999999
37472,14:10:06.325000,-7.0099211,-5.4585452000000005,-3.7611291,-5.1476917,-1.3583493,-1.3091747999999999
37473,14:10:06.336000,-7.1846905,-4.8959322,-3.9718099000000002,-4.2961464000000005,-1.1152251,-1.3287225
37474,14:10:06.345000,-6.9692216,-4.7355275,-3.8880162000000005,-4.2961464000000005,-1.1152251,-1.3287225
37475,14:10:06.355000,-6.849516400000001,-4.685251200000001,-3.9335042999999996,-3.928406,-1.0504735,-1.3727046999999999
37476,14:10:06.367000,-7.1463852,-4.4530234,-3.7156413,-3.4665926,-0.9771698,-1.4802170000000001
37477,14:10:06.374000,-7.2756662,-3.9813862,-3.8233757000000006,-3.4665926,-0.9771698,-1.4802170000000001
37478,14:10:06.385000,-7.1463852,-3.9287159,-4.137002900000001,-3.4067277999999996,-1.002826,-1.6463721999999998
37479,14:10:06.394000,-7.273272,-4.3333187,-4.3285303,-3.4067277999999996,-1.002826,-1.6463721999999998
37480,14:10:06.403000,-7.701815600000001,-4.4817529,-4.7738328,-3.4543752999999997,-1.0358127000000001,-1.6524808000000002
37481,14:10:06.415000,-7.5198641,-4.687645400000001,-4.632581200000001,-3.4543752999999997,-1.0358127000000001,-1.6524808000000002
37482,14:10:06.422000,-7.536623,-4.426688700000001,-4.522452400000001,-3.3969538,-1.0675777,-1.6268245000000001
37483,14:10:06.435000,-7.419312,-4.137002900000001,-4.1944609,-3.2161379,-1.1592073,-1.5706248999999999
37484,14:10:06.441000,-8.127965,-2.8010955,-4.5990634,-3.2161379,-1.1592073,-1.5706248999999999
37485,14:10:06.451000,10.7662621,-13.081356,7.498317699999999,-3.3749627999999996,-1.2630544,-1.7758754
37486,14:10:06.461000,-7.9843197,-6.3012681,-5.281382099999999,-3.6730647000000003,-1.1176686000000002,-1.7172325000000002
37487,14:10:06.471000,-7.6778746,-4.9318433,-4.9821196,-3.2527897,-1.2092983999999998,-1.1259153999999998
37488,14:10:06.479000,-7.0745621,-4.682857,-4.522452400000001,-3.2527897,-1.2092983999999998,-1.1259153999999998
37489,14:10:06.489000,-7.2996068,-4.2112193,-4.156155600000001,-2.8655016,-1.1750898,-1.2322058999999999
37490,14:10:06.500000,-7.486347200000001,-4.1657319,-4.0292683,-2.6626945,-1.1213338,-1.1833367
37491,14:10:06.510000,-7.4959229999999994,-4.2782545,-3.9574451,-2.6944594,-1.0981208999999998,-1.0904851999999998
37492,14:10:06.520000,-7.258907300000001,-4.390777099999999,-3.9646275,-2.8190758,-1.0724646999999998,-1.0562768
37493,14:10:06.531000,-7.1607494,-4.369229799999999,-4.0029330000000005,-2.9241445,-1.0675777,-1.0489465
37494,14:10:06.539000,-7.1822957999999995,-4.3141661,-4.0220861,-2.990118,-1.0626906999999999,-1.0269554
37495,14:10:06.549000,-6.9117632,-4.4626002,-4.1800966,-3.0206611,-1.0761298000000001,-0.9670907
37496,14:10:06.558000,-6.966827400000001,-4.8408675,-4.3309245,-3.0206611,-1.0761298000000001,-0.9670907
37497,14:10:06.568000,-7.3714299,-4.9246612,-4.412324,-2.9962265,-1.0895689,-0.9487646999999999
37498,14:10:06.578000,-7.570139900000001,-4.9150844000000005,-4.405141400000001,-2.8936014,-1.0822383999999998,-0.8620219000000001
37499,14:10:06.587000,-7.723362400000001,-4.8624144,-4.4913292,-2.7408853,-1.0968993,-0.8278135
37500,14:10:06.599000,-8.0274134,-4.8743849,-4.4937234,-2.5270824,-1.1530988000000002,-0.7410707
37501,14:10:06.607000,-7.9843197,-4.898325900000001,-4.5511813,-2.5270824,-1.1530988000000002,-0.7410707
37502,14:10:06.617000,-7.9436197,-4.9869075,-4.6613107000000005,-2.4745481,-1.2264025,-0.6457758000000001
37503,14:10:06.626000,-7.8837671,-5.039578,-4.6589160000000005,-2.4745481,-1.2264025,-0.6457758000000001
37504,14:10:06.636000,-7.7042098,-5.178435299999999,-4.6613107000000005,-2.4073529,-1.2826021,-0.5052769
37505,14:10:06.647000,-7.4743767000000005,-5.4106631,-4.5894876,-2.4073529,-1.2826021,-0.5052769
37506,14:10:06.655000,-7.3834004,-5.6069794,-4.486540799999999,-2.3560404999999998,-1.3082583,-0.43441660000000004
37507,14:10:06.668000,-7.3187599,-5.7171078,-4.3428949999999995,-2.1984372000000003,-1.3424668,-0.2853656
37508,14:10:06.675000,-7.421706200000001,-5.654861,-4.1848845,-2.1984372000000003,-1.3424668,-0.2853656
37509,14:10:06.684000,-7.5342288,-5.4729095,-4.2231898,-2.1116946,-1.3620145000000001,-0.2328312
37510,14:10:06.695000,-7.6802687999999995,-5.367569400000001,-4.5511813,-2.077486,-1.3852274,-0.2206139
37511,14:10:06.703000,-7.776032400000001,-5.1880121,-4.7546802,-2.1617854,-1.4866309,-0.2804787
37512,14:10:06.718000,-7.701815600000001,-5.2119532,-5.3364458,-2.1617854,-1.4866309,-0.2804787
37513,14:10:06.733000,-7.550987700000001,-5.7602015,-5.934970900000001,-2.3377144,-1.6735556,-0.4539643
37514,14:10:06.743000,-7.5797167000000005,-6.2222624,-5.5686735999999994,-2.3377144,-1.6735556,-0.4539643
37515,14:10:06.752000,-7.6587219,-6.306056,-5.757807700000001,-2.3206103,-1.7431941000000002,-0.5089421
37516,14:10:06.767000,-7.2565136,-6.152833900000001,-6.0642519,-2.2069892999999996,-1.7993936999999998,-0.5297115
37517,14:10:06.771000,-7.0673794999999995,-6.0666461,-6.1624098,-2.2069892999999996,-1.7993936999999998,-0.5297115
37518,14:10:06.780000,-7.1392026,-5.9158182,-6.1025577,-2.0335038,-1.7920631999999999,-0.50039
37519,14:10:06.791000,-7.1822957999999995,-5.9684882,-6.169592400000001,-1.8404706000000002,-1.7468593000000001,-0.46740329999999997
37520,14:10:06.800000,-7.0362558,-5.8631482,-6.248597599999999,-1.6596546000000003,-1.6833293000000003,-0.4490773
37521,14:10:06.814000,-7.0673794999999995,-5.5255799,-6.0905871,-1.3432267,-1.5196176000000001,-0.47473370000000004
37522,14:10:06.820000,-7.0745621,-5.4369984,-6.246203400000001,-1.3432267,-1.5196176000000001,-0.47473370000000004
37523,14:10:06.831000,-6.966827400000001,-5.3532052000000006,-6.1169224,-1.238158,-1.2862673,-0.5895762
37524,14:10:06.839000,-6.9859800000000005,-5.037183799999999,-6.2270508,-1.238158,-1.2862673,-0.5895762
37525,14:10:06.849000,-6.8447285,-4.974937000000001,-6.229445,-1.3786569,-1.0675777,-0.7520663000000001
37526,14:10:06.858000,-6.7992406,-4.8624144,-6.0139761,-1.3786569,-1.0675777,-0.7520663000000001
37527,14:10:06.868000,-6.629259599999999,-5.097035900000001,-6.0666461,-1.4702865,-0.9539568000000002,-0.8363655999999999
37528,14:10:06.880000,-6.672352799999999,-5.164071099999999,-6.1552280999999995,-1.6401069,-0.7425977,-0.9707558000000001
37529,14:10:06.887000,-6.665171099999999,-5.1616769,-6.2222624,-1.6706501,-0.6424159,-1.0159597
37530,14:10:06.899000,-6.6891122,-5.1521006,-6.4209727999999995,-1.6706501,-0.6424159,-1.0159597
37531,14:10:06.907000,-6.7226295,-5.1568885,-6.4305490999999995,-1.6804240000000001,-0.5581166,-1.0403944
37532,14:10:06.917000,-6.763329,-5.125765299999999,-6.3802729000000005,-1.6523241999999998,-0.47992579999999996,-1.0391726000000001
37533,14:10:06.931000,-6.7992406,-5.1880121,-6.334785500000001,-1.5277078000000002,-0.3357618,-1.0257336
37534,14:10:06.935000,-6.8997927,-5.065913200000001,-6.085799199999999,-1.5277078000000002,-0.3357618,-1.0257336
37535,14:10:06.946000,-6.827969599999999,-4.9677548,-5.8846945999999996,-1.3517787,-0.190376,-0.9951904
37536,14:10:06.955000,-6.739388000000001,-4.759468599999999,-5.8655419,-1.3517787,-0.190376,-0.9951904
37537,14:10:06.965000,-6.8255754,-4.476964499999999,-5.743443,-1.2931358,-0.03277290000000001,-0.9597601999999998
37538,14:10:06.978000,-6.820787400000001,-4.476964499999999,-5.597403,-1.3041314,0.035644,-0.9414343000000001
37539,14:10:06.984000,-6.918945299999999,-4.577516999999999,-5.5183973,-1.3041314,0.035644,-0.9414343000000001
37540,14:10:06.996000,-7.0290742,-4.4434476,-5.3867221,-1.3530004999999998,0.14071270000000002,-0.8693523000000001
37541,14:10:07.004000,-7.100896799999999,-4.400353400000001,-5.3292642,-1.3530004999999998,0.14071270000000002,-0.8693523000000001
37542,14:10:07.014000,-7.1822957999999995,-4.2543135,-5.2694116,-1.3774351,0.1688125,-0.7740574
37543,14:10:07.024000,-7.141596300000001,-4.3213482,-5.310111,-1.3774351,0.1688125,-0.7740574
37544,14:10:07.036000,-7.2565136,-4.3931708,-5.1808295,-1.3725482,0.16759079999999998,-0.7288534000000001
37545,14:10:07.048000,-7.2948189,-4.3764124,-5.0730948,-1.3517787,0.1639256,-0.6604366
37546,14:10:07.052000,-7.3714299,-4.476964499999999,-5.0778837,-1.3310094,0.16759079999999998,-0.6201194999999999
37547,14:10:07.061000,-7.402553599999999,-4.4673886,-5.082671599999999,-1.2748098,0.1822515,-0.5700286
37548,14:10:07.070000,-7.412129400000001,-4.3812003,-5.0204248,-1.1807367,0.1993557,-0.5248246
37549,14:10:07.080000,-7.6156277999999995,-4.055603,-4.7881975,-1.1807367,0.1993557,-0.5248246
37550,14:10:07.090000,-7.9316492,-2.4659216,-4.8504438,-1.0658941000000002,0.22379029999999997,-0.4979465
37551,14:10:07.100000,-8.1423302,-0.2489863,-3.6510005,-0.9815948,0.25433360000000005,-0.5284898
37552,14:10:07.110000,-7.8478556,-6.9141569,-5.8248425,-1.0720028,0.22012510000000002,-0.7422924
37553,14:10:07.120000,-7.3450952,-4.9893022,-4.7187686,-1.5558076,0.2421163,-1.0257336
37554,14:10:07.129000,-7.081744199999999,-4.4937234,-4.632581200000001,-1.5362599,0.26899429999999996,-0.532155
37555,14:10:07.139000,-7.1918726,-4.8815675,-4.8743849,-1.1734062,0.2189034,-0.468625
37556,14:10:07.149000,-7.3762178,-4.1848845,-4.759468599999999,-1.1282023,0.225012,-0.3159088
37557,14:10:07.160000,-7.0578032,-4.354865599999999,-4.704403900000001,-1.0219119,0.27143779999999995,-0.1656361
37558,14:10:07.169000,-7.1248379,-4.472176599999999,-4.8648086,-0.9351690999999999,0.333746,-0.1363146
37559,14:10:07.178000,-7.0194974000000006,-4.759468599999999,-5.08746,-0.9547167,0.3826151,-0.12287560000000002
37560,14:10:07.197000,-6.940492599999999,-4.730739099999999,-5.2215295,-0.948608,0.41682359999999996,-0.1045496
37561,14:10:07.207000,-6.9213395,-4.632581200000001,-5.0252137,-0.7482444,0.5011229,-0.0459066
37562,14:10:07.217000,-6.8303633,-4.611033900000001,-4.9869075,-0.5735371,0.5438834,-0.009254700000000001
37563,14:10:07.228000,-6.854304300000001,-4.2974076,-4.8121386,-0.2717699,0.6562825,0.141018
37564,14:10:07.236000,-6.9165516,-4.3117719,-4.7403154,-0.2717699,0.6562825,0.141018
37565,14:10:07.246000,-7.203843099999999,-4.139396700000001,-4.6397634000000005,-0.09706260000000001,0.7466904999999999,0.27296479999999995
37566,14:10:07.255000,-7.2469368,-3.978992,-4.7115865,-0.09706260000000001,0.7466904999999999,0.27296479999999995
37567,14:10:07.265000,-7.2469368,-4.0125093000000005,-4.8600205999999995,-0.1105016,0.7503557,0.29739940000000004
37568,14:10:07.278000,-7.2541189,-3.9143515,-4.824109099999999,-0.28643070000000004,0.658726,0.27296479999999995
37569,14:10:07.285000,-7.230177900000001,-3.9454749,-4.7091918,-0.28643070000000004,0.658726,0.27296479999999995
37570,14:10:07.296000,-7.2086315,-3.9742040999999997,-4.673281200000001,-0.4794639,0.5304444,0.2411998
37571,14:10:07.303000,-7.165537400000001,-3.7898582999999997,-4.752286,-0.4794639,0.5304444,0.2411998
37572,14:10:07.313000,-7.069773700000001,-4.1681261,-4.8408675,-0.5955282,0.48279700000000003,0.22531729999999997
37573,14:10:07.323000,-7.0314679,-4.2184019,-4.8887496,-0.7079273,0.4461451,0.2167652
37574,14:10:07.334000,-6.9692216,-4.426688700000001,-5.1233716,-0.772679,0.4082715,0.2155435
37575,14:10:07.346000,-6.9596448,-4.4913292,-4.8839616999999995,-0.7311403000000001,0.3850586,0.2644127
37576,14:10:07.353000,-6.9859800000000005,-4.2926192,-4.4314770999999995,-0.7311403000000001,0.3850586,0.2644127
