,time,ax,ay,az,wx,wy,wz
50895,14:23:55.003000,2.3222756,3.2751269,8.6929731,0.510137,0.48279700000000003,0.059162099999999995
50896,14:23:55.009000,2.2624232999999996,3.6055129,8.8677416,0.510137,0.48279700000000003,0.059162099999999995
50897,14:23:55.020000,2.2911525,3.8880162000000005,9.0832109,0.46493290000000004,0.5267791999999999,0.1007009
50898,14:23:55.029000,2.2217238,4.1274261,9.219674099999999,0.46493290000000004,0.5267791999999999,0.1007009
50899,14:23:55.038000,2.082866,4.0675735,9.3058624,0.31466020000000006,0.5805353,0.16789600000000002
50900,14:23:55.051000,1.8673970000000002,3.8305580999999997,9.116727800000001,0.21203490000000003,0.6159654999999999,0.1911089
50901,14:23:55.057000,1.6806574,3.5049605,8.898864699999999,0.21203490000000003,0.6159654999999999,0.1911089
50902,14:23:55.070000,1.6136225,3.102752,8.7504311,0.0190017,0.6232958000000001,0.2167652
50903,14:23:55.078000,1.5130703,2.8465835999999998,8.5924196,-0.048193400000000004,0.6025264,0.2021044
50904,14:23:55.087000,1.4173065,2.5616858,8.467927,-0.07751489999999998,0.5719831999999999,0.18500020000000003
50905,14:23:55.097000,1.3454834999999998,2.4156458,8.7576132,-0.07751489999999998,0.5719831999999999,0.18500020000000003
50906,14:23:55.106000,1.1778966,2.7244842,9.0137815,-0.0689628,0.5304444,0.16789600000000002
50907,14:23:55.120000,0.9815805000000001,2.9495296000000004,9.0832109,0.0275538,0.4302626,0.13979629999999998
50908,14:23:55.125000,0.7948408,3.3852558,9.0592699,0.0275538,0.4302626,0.13979629999999998
50909,14:23:55.135000,0.9217280000000001,3.9071693,9.0568762,0.0923055,0.2799899,0.12024860000000001
50910,14:23:55.145000,1.2425373,4.1178498,8.898864699999999,0.0923055,0.2799899,0.12024860000000001
50911,14:23:55.155000,1.5106763,3.7922525,8.7288837,-0.131271,0.1651473,0.13002239999999998
50912,14:23:55.171000,1.575317,3.1721807,8.597209,-0.3511823,0.1602604,0.1569005
50913,14:23:55.175000,1.5178586,2.5832324,8.6450911,-0.5368853,0.16759079999999998,0.1764481
50914,14:23:55.186000,1.5322232,2.0613191000000004,8.7408552,-0.5368853,0.16759079999999998,0.1764481
50915,14:23:55.194000,1.6423517,1.79318,8.9323816,-0.6896014,0.14071270000000002,0.1959958
50916,14:23:55.205000,1.7261453000000002,1.6040461000000001,9.111940400000002,-0.6969316999999999,0.12116500000000001,0.2045479
50917,14:23:55.214000,1.9104908,1.5633465,9.2867088,-0.6969316999999999,0.12116500000000001,0.2045479
50918,14:23:55.222000,1.9320377,1.3837892,9.382473,-0.6639451,0.080848,0.20088270000000003
50919,14:23:55.232000,2.0493486,1.2425373,9.4016256,-0.6468408,0.07473930000000001,0.19721760000000002
50920,14:23:55.241000,2.039772,1.2281727,9.382473,-0.6468408,0.07473930000000001,0.19721760000000002
50921,14:23:55.252000,2.0637131,1.3406953000000001,9.461478199999998,-0.5698719,0.0918435,0.1788916
50922,14:23:55.261000,2.2552409,1.4340651000000002,9.4662657,-0.5698719,0.0918435,0.1788916
50923,14:23:55.271000,2.4371924,1.309572,9.463872,-0.5454373,0.107726,0.11780510000000001
50924,14:23:55.282000,2.5568974,1.0438271000000001,9.4183836,-0.5454373,0.107726,0.11780510000000001
50925,14:23:55.290000,2.4922566,0.6368303000000001,9.3154383,-0.5772023000000001,0.13582579999999997,0.0945923
50926,14:23:55.300000,2.3126995999999997,0.2513804,9.1981268,-0.5881978,0.2189034,0.0652708
50927,14:23:55.310000,2.0493486,0.0526702,9.107152000000001,-0.5881978,0.2189034,0.0652708
50928,14:23:55.319000,1.9128848000000003,0.21068070000000003,9.1765804,-0.5148941,0.2531118,0.037170999999999996
50929,14:23:55.331000,1.7620566000000002,0.48600200000000005,9.246008900000001,-0.3878342,0.2665508,-0.0019244
50930,14:23:55.340000,1.7979681,0.8906046999999999,9.3058624,-0.14226660000000002,0.25433360000000005,-0.1033279
50931,14:23:55.351000,1.8458501,1.2042316000000002,9.339379300000001,-0.07751489999999998,0.2518901,-0.14486670000000001
50932,14:23:55.359000,1.8458501,1.3766067,9.3633204,-0.07751489999999998,0.2518901,-0.14486670000000001
50933,14:23:55.369000,1.6040461000000001,1.3861831,9.3561382,-0.06651939999999999,0.27143779999999995,-0.16197089999999997
50934,14:23:55.382000,1.3071779,1.2832369,9.2914972,-0.0995061,0.3215287,-0.1460884
50935,14:23:55.387000,1.1300146999999998,1.1371969,9.2747393,-0.14715350000000002,0.3532937,-0.11921040000000001
50936,14:23:55.403000,0.9839745999999999,1.163532,9.2699499,-0.20946170000000003,0.3752848,-0.09966269999999999
50937,14:23:55.406000,0.8522992,1.1467732,9.3058624,-0.23389629999999997,0.3667327,-0.0898889
50938,14:23:55.417000,0.8187817,1.1036795,9.341773,-0.2742134,0.3447415,-0.08744539999999999
50939,14:23:55.427000,0.8044171999999999,1.0342506999999999,9.478237199999999,-0.2742134,0.3447415,-0.08744539999999999
50940,14:23:55.437000,0.7589293,0.9504572,9.521330800000001,-0.3939429,0.3178635,-0.0898889
50941,14:23:55.449000,0.7086533,0.8762401,9.633853,-0.44769899999999996,0.3093114,-0.0972193
50942,14:23:55.455000,0.6224656999999999,0.7349883,9.6362467,-0.44769899999999996,0.3093114,-0.0972193
50943,14:23:55.466000,0.5243076,0.5889483,9.6290646,-0.5136724,0.2787682,-0.09966269999999999
50944,14:23:55.474000,0.48121379999999997,0.43333190000000005,9.461478199999998,-0.5222244,0.256777,-0.0959975
50945,14:23:55.484000,0.3734794,0.387844,9.461478199999998,-0.5222244,0.256777,-0.0959975
50946,14:23:55.498000,0.30165640000000005,0.3423561,9.4040203,-0.5014550999999999,0.2103513,-0.08011510000000001
50947,14:23:55.505000,0.22743939999999999,0.3519325,9.3441668,-0.4770205,0.19691229999999998,-0.07034119999999999
50948,14:23:55.514000,0.11731079999999999,0.2513804,9.389655099999999,-0.45502929999999997,0.1871384,-0.0507935
50949,14:23:55.522000,0.0861876,0.2920801,9.351349800000001,-0.45136409999999993,0.1639256,-0.027580700000000003
50950,14:23:55.533000,0.0694289,0.0406997,9.3250151,-0.4648032,0.1419345,-0.030024099999999998
50951,14:23:55.541000,0.055064300000000004,-0.09815800000000001,9.3321972,-0.4648032,0.1419345,-0.030024099999999998
50952,14:23:55.551000,0.0885817,-0.0694289,9.310649900000001,-0.4648032,0.1174999,-0.03613280000000001
50953,14:23:55.563000,0.038305599999999995,-0.0167587,9.5380888,-0.3902777,0.11505639999999999,-0.039798
50954,14:23:55.570000,-0.009576399999999999,0.1484341,9.641036,-0.3902777,0.11505639999999999,-0.039798
50955,14:23:55.579000,0.007182300000000001,0.2058925,9.767923399999999,-0.3450737,0.10650430000000001,-0.027580700000000003
50956,14:23:55.589000,0.0622466,0.2394099,9.9283276,-0.2632178,0.07107410000000002,0.0200668
50957,14:23:55.600000,0.10773440000000001,0.28968590000000005,9.901991800000001,-0.2326746,0.0576351,0.054275199999999996
50958,14:23:55.609000,0.2034984,0.2537745,9.8948097,-0.2326746,0.0576351,0.054275199999999996
50959,14:23:55.619000,0.2370158,0.22743939999999999,9.794258099999999,-0.1703664,0.039309199999999996,0.13979629999999998
50960,14:23:55.631000,0.13406949999999998,0.1005521,9.5476656,-0.1373797,0.0344222,0.18011329999999998
50961,14:23:55.638000,0.2130748,0.12449310000000001,9.7080698,-0.1373797,0.0344222,0.18011329999999998
50962,14:23:55.648000,0.28968590000000005,0.1149167,9.657794,-0.1019495,-0.0010079000000000002,0.20699139999999996
50963,14:23:55.659000,0.24419810000000003,0.1005521,9.619488699999998,-0.0762932,0.0014356,0.2094348
50964,14:23:55.667000,0.30165640000000005,0.16279870000000002,9.562029800000001,-0.048193400000000004,-0.019333799999999998,0.2167652
50965,14:23:55.680000,0.30883879999999997,0.2825037,9.562029800000001,-0.0078764,-0.049877099999999994,0.20088270000000003
50966,14:23:55.687000,0.31362690000000004,0.28729190000000004,9.506965600000001,-0.0078764,-0.049877099999999994,0.20088270000000003
50967,14:23:55.699000,0.35672070000000006,0.30165640000000005,9.5548477,-0.0176502,-0.086529,0.1825568
50968,14:23:55.707000,0.4261496,0.3279915,9.5907602,-0.0176502,-0.086529,0.1825568
50969,14:23:55.716000,0.42136140000000005,0.316021,9.6889181,-0.027424,-0.099968,0.1740047
50970,14:23:55.729000,0.45727290000000004,0.23462170000000002,9.6362467,-0.0494152,-0.113407,0.16423089999999999
50971,14:23:55.735000,0.4692433,0.122099,9.559636099999999,-0.0494152,-0.113407,0.16423089999999999
50972,14:23:55.746000,0.5482486,0.0813994,9.5692129,-0.0445282,-0.12684600000000001,0.1556787
50973,14:23:55.754000,0.5386721999999999,-0.0263351,9.5141478,-0.0445282,-0.12684600000000001,0.1556787
50974,14:23:55.765000,0.5841601,-0.0167587,9.3992319,0.029997199999999998,-0.1292895,0.1385745
50975,14:23:55.775000,0.5434604000000001,-0.023941,9.2292509,0.0861968,-0.1341764,0.12269200000000001
50976,14:23:55.784000,0.5434604000000001,0.0813994,9.1574278,0.1423964,-0.15250239999999998,0.1055878
50977,14:23:55.796000,0.6368303000000001,0.3854499,9.1765804,0.1949307,-0.17571520000000002,0.0774881
50978,14:23:55.803000,0.6368303000000001,0.6081011,9.2172804,0.1949307,-0.17571520000000002,0.0774881
50979,14:23:55.814000,0.6272539,0.8403287,9.2747393,0.24013470000000003,-0.21114539999999998,0.035949300000000003
50980,14:23:55.822000,0.6871063000000001,1.1036795,9.4255667,0.24013470000000003,-0.21114539999999998,0.035949300000000003
50981,14:23:55.832000,0.8044171999999999,1.2784487,9.487813000000001,0.22425219999999998,-0.2441321,0.0261754
50982,14:23:55.845000,0.9600335999999999,1.3622421,9.588364599999998,0.089862,-0.31499240000000006,0.0078495
50983,14:23:55.851000,1.1324087,1.1587437,9.5093603,0.089862,-0.31499240000000006,0.0078495
50984,14:23:55.861000,1.2664783000000002,0.9743982,9.5045719,-0.0078764,-0.3467574,0.013958100000000001
50985,14:23:55.870000,1.4795530000000001,0.7685057,9.4519024,-0.09584089999999999,-0.3736354,0.024953700000000002
50986,14:23:55.881000,1.6255928999999998,0.5458545,9.4495077,-0.23389629999999997,-0.4225045,0.053053499999999996
50987,14:23:55.890000,1.8410618000000003,0.34714429999999996,9.3082561,-0.23389629999999997,-0.4225045,0.053053499999999996
50988,14:23:55.900000,1.9799197,0.1723751,9.2819214,-0.2827655,-0.4347219,0.0579404
50989,14:23:55.912000,2.2097533,-0.059852499999999996,9.3441668,-0.32674770000000003,-0.45060429999999996,0.0579404
50990,14:23:55.920000,2.3629756,-0.1532223,9.277133000000001,-0.3194174,-0.4420522,0.0493883
50991,14:23:55.929000,2.4874685000000003,-0.2609568,9.238826800000002,-0.3194174,-0.4420522,0.0493883
50992,14:23:55.940000,2.6239324,-0.32320340000000003,9.293891,-0.2729917,-0.4090655,0.05061
50993,14:23:55.950000,2.7580017999999997,-0.31362690000000004,9.2819214,-0.2729917,-0.4090655,0.05061
50994,14:23:55.961000,2.8106720000000003,-0.3208092,9.2244616,-0.1862489,-0.34309209999999996,0.035949300000000003
50995,14:23:55.969000,2.8657362,-0.33756790000000003,9.250798199999998,-0.149597,-0.3088837,0.029840600000000002
50996,14:23:55.981000,2.8657362,-0.2944742,9.246008900000001,-0.11172339999999999,-0.2697884,0.023732
50997,14:23:55.988000,2.9040418,-0.26813909999999996,9.2867088,-0.11172339999999999,-0.2697884,0.023732
50998,14:23:55.998000,2.8681302000000004,-0.23462170000000002,9.246008900000001,-0.0652976,-0.23191479999999998,0.0164016
50999,14:23:56.012000,2.8058836,-0.09097569999999999,9.2651625,0.0287755,-0.15250239999999998,0.0005191
51000,14:23:56.019000,2.8034897,0.0526702,9.2914972,0.0287755,-0.15250239999999998,0.0005191
51001,14:23:56.028000,2.693361,0.28729190000000004,9.3274088,0.0800882,-0.1109636,-0.0007026
51002,14:23:56.037000,2.5856267999999996,0.3950263,9.3441668,0.1277356,-0.0645378,0.0066277
51003,14:23:56.047000,2.3940987999999996,0.47642559999999995,9.4040203,0.1546136,-0.0071166,0.013958100000000001
51004,14:23:56.059000,2.2504527999999997,0.4931844,9.3968382,0.161944,0.08573489999999999,0.0200668
51005,14:23:56.077000,1.8937321,0.5650073,9.1646099,0.2010394,0.1651473,0.053053499999999996
51006,14:23:56.086000,1.6543223000000002,0.6966828,9.0377226,0.2010394,0.1651473,0.053053499999999996
51007,14:23:56.095000,1.4412475,0.9672159,9.1023626,0.24379989999999999,0.23112070000000004,0.07870980000000001
51008,14:23:56.105000,1.2162021,1.2664783000000002,9.243615199999999,0.24379989999999999,0.23112070000000004,0.07870980000000001
51009,14:23:56.114000,1.0629798000000001,1.551376,9.384866699999998,0.23891300000000001,0.2531118,0.0884836
51010,14:23:56.126000,0.9815805000000001,1.623199,9.559636099999999,0.1240704,0.24822489999999997,0.1153617
51011,14:23:56.134000,0.9504572,1.601652,9.624277099999999,0.1240704,0.24822489999999997,0.1153617
51012,14:23:56.145000,0.9648218000000001,1.2952073999999998,9.6889181,-0.0982843,0.1993557,0.16423089999999999
51013,14:23:56.154000,1.0342506999999999,0.8594815,9.617094999999999,-0.0982843,0.1993557,0.16423089999999999
51014,14:23:56.163000,1.0486152,0.46445519999999996,9.605124499999999,-0.2766568,0.12360850000000001,0.1740047
51015,14:23:56.175000,1.0701622,0.12449310000000001,9.562029800000001,-0.3145305,0.0845132,0.15934389999999998
51016,14:23:56.182000,1.1802906000000002,-0.1532223,9.487813000000001,-0.32063909999999995,0.0478613,0.13002239999999998
51017,14:23:56.195000,1.2856309,-0.411785,9.5309067,-0.298648,0.0197615,0.0897053
51018,14:23:56.200000,1.2999957,-0.5171254,9.4566898,-0.253444,0.0051007,0.06038380000000001
51019,14:23:56.210000,1.3311188,-0.5051548,9.463872,-0.253444,0.0051007,0.06038380000000001
51020,14:23:56.219000,1.3287247,-0.5051548,9.4590836,-0.1935792,0.0112094,0.0396144
51021,14:23:56.229000,1.3909714,-0.5506426999999999,9.516543400000002,-0.1337145,0.025870099999999997,0.012736399999999998
51022,14:23:56.242000,1.3861831,-0.5219135,9.619488699999998,-0.027424,0.0649655,-0.0239155
51023,14:23:56.250000,1.3143603000000001,-0.42854369999999997,9.6697655,-0.027424,0.0649655,-0.0239155
51024,14:23:56.261000,1.3023897,-0.30165640000000005,9.6458244,0.031219,0.08573489999999999,-0.030024099999999998
51025,14:23:56.271000,1.26169,-0.22265120000000002,9.6147013,0.0923055,0.10650430000000001,-0.030024099999999998
51026,14:23:56.279000,1.2305667,-0.1316754,9.571606599999999,0.1460615,0.12116500000000001,-0.0202503
51027,14:23:56.292000,1.1419852,-0.038305599999999995,9.463872,0.2144784,0.14071270000000002,-0.0019244
51028,14:23:56.299000,1.0294625,0.0933698,9.447114,0.2144784,0.14071270000000002,-0.0019244
51029,14:23:56.309000,0.8977870000000001,0.2513804,9.5093603,0.26334759999999996,0.13582579999999997,0.0078495
51030,14:23:56.319000,0.8690578999999999,0.3998145,9.521330800000001,0.26334759999999996,0.13582579999999997,0.0078495
51031,14:23:56.328000,0.9313045,0.4429083,9.5859709,0.28045180000000003,0.11872160000000001,0.0005191
51032,14:23:56.340000,0.9839745999999999,0.49557840000000003,9.588364599999998,0.2877822,0.0796262,-0.0153634
51033,14:23:56.348000,0.9815805000000001,0.48121379999999997,9.5141478,0.2877822,0.0796262,-0.0153634
51034,14:23:56.360000,0.9528513000000001,0.4931844,9.3800793,0.2718997,0.0637438,0.0029625999999999997
51035,14:23:56.367000,1.0007333,0.5458545,9.317832000000001,0.2718997,0.0637438,0.0029625999999999997
51036,14:23:56.377000,0.9624277,0.5721896,9.0927868,0.2694562,0.0478613,0.0041843
51037,14:23:56.386000,0.9696100000000001,0.6464066999999999,8.9228058,0.2682345,0.0319788,0.0005191
51038,14:23:56.395000,0.895393,0.7637175,8.9922352,0.26334759999999996,0.0185398,0.005406
51039,14:23:56.408000,0.9384867,0.8786343000000001,9.1765804,0.23036089999999998,-0.0071166,-0.008033
51040,14:23:56.415000,0.9648218000000001,0.9241222,9.3345909,0.23036089999999998,-0.0071166,-0.008033
51041,14:23:56.425000,1.0605857,1.0103096999999999,9.4375372,0.15950060000000002,-0.0559857,-0.019028599999999996
51042,14:23:56.435000,1.1467732,0.9839745999999999,9.4255667,0.15950060000000002,-0.0559857,-0.019028599999999996
51043,14:23:56.444000,1.2928133999999998,0.9097575000000001,9.406414,0.10574449999999999,-0.07919860000000001,-0.004367800000000001
51044,14:23:56.470000,1.4220946,0.7685057,9.4016256,-0.018871900000000004,-0.10852010000000001,0.023732
51045,14:23:56.474000,1.4723707000000001,0.6033128000000001,9.2819214,-0.018871900000000004,-0.10852010000000001,0.023732
51046,14:23:56.475000,1.5346173,0.3423561,9.1358814,-0.018871900000000004,-0.10852010000000001,0.023732
51047,14:23:56.489000,1.6591103999999999,0.28489770000000003,9.001811,-0.1300493,-0.1256243,0.054275199999999996
51048,14:23:56.492000,1.6830512999999998,0.2130748,8.980263699999998,-0.1373797,-0.12073740000000001,0.06038380000000001
51049,14:23:56.501000,1.7261453000000002,0.2489863,8.9132299,-0.14226660000000002,-0.12073740000000001,0.054275199999999996
51050,14:23:56.511000,1.8913380000000002,0.2561686,8.9563227,-0.1508187,-0.1256243,0.0432796
51051,14:23:56.521000,1.9535846999999997,0.22743939999999999,8.9347773,-0.16670120000000002,-0.1280678,0.0322841
51052,14:23:56.530000,2.0038607,0.22743939999999999,9.0592699,-0.16670120000000002,-0.1280678,0.0322841
51053,14:23:56.541000,2.0613191000000004,0.17955739999999998,9.064058300000001,-0.2241225,-0.12073740000000001,0.028618900000000003
51054,14:23:56.551000,2.0685015,0.1053403,9.143062599999999,-0.2241225,-0.12073740000000001,0.028618900000000003
51055,14:23:56.560000,2.0756836,0.11731079999999999,9.143062599999999,-0.2497788,-0.11951569999999999,0.023732
51056,14:23:56.572000,2.0972304,0.15082820000000002,9.200521499999999,-0.2742134,-0.1170722,0.0176233
51057,14:23:56.580000,2.039772,0.217863,9.1670036,-0.2742134,-0.1170722,0.0176233
51058,14:23:56.600000,2.0182252,0.35672070000000006,9.257980300000002,-0.2815438,-0.11829389999999998,0.0102929
51059,14:23:56.609000,2.0014665000000003,0.3974204,9.3681078,-0.3096435,-0.1353981,-0.0055896
51060,14:23:56.620000,2.0804718,0.3710853,9.4423246,-0.3682866,-0.1549458,-0.0239155
51061,14:23:56.629000,2.1092009999999997,0.2753213,9.597942399999999,-0.3682866,-0.1549458,-0.0239155
51062,14:23:56.640000,2.1738417,0.2034984,9.650611900000001,-0.4281513,-0.15983270000000002,-0.030024099999999998
51063,14:23:56.648000,2.3126995999999997,0.0335174,9.7846823,-0.4281513,-0.15983270000000002,-0.030024099999999998
51064,14:23:56.657000,2.3150935,-0.16758689999999998,9.8732634,-0.4428121,-0.1488372,-0.0288024
51065,14:23:56.667000,2.2863643,-0.3998145,9.8349581,-0.44769899999999996,-0.1256243,-0.0202503
51066,14:23:56.676000,2.3318522,-0.8283582,9.5668192,-0.4367034000000001,-0.0938593,-0.0007026
51067,14:23:56.689000,2.2959406,-1.0342506999999999,9.471055,-0.3426302,-0.022999000000000002,0.0225102
51068,14:23:56.697000,2.1115949,-1.1012853,9.4112024,-0.3426302,-0.022999000000000002,0.0225102
51069,14:23:56.706000,1.8626089,-0.8666638000000001,9.3274088,-0.15937079999999998,0.0845132,0.0396144
51070,14:23:56.716000,1.7429038000000001,-0.6751359,9.3609257,-0.15937079999999998,0.0845132,0.0396144
51071,14:23:56.726000,1.6447458,-0.3854499,9.272343600000001,-0.0848453,0.1199433,0.0261754
51072,14:23:56.737000,1.5657406,-0.2465922,9.3202257,-0.026202299999999998,0.15659520000000002,0.018844999999999997
51073,14:23:56.745000,1.575317,-0.2561686,9.4183836,-0.026202299999999998,0.15659520000000002,0.018844999999999997
51074,14:23:56.755000,1.5633465,-0.3830558,9.5093603,-0.0872888,0.1455996,0.0335058
51075,14:23:56.764000,1.5585582,-0.5434604000000001,9.5740013,-0.11416680000000001,0.1346041,0.035949300000000003
51076,14:23:56.773000,1.6255928999999998,-0.725412,9.6458244,-0.11416680000000001,0.1346041,0.035949300000000003
51077,14:23:56.786000,1.5896816,-0.8690578999999999,9.6362467,-0.11416680000000001,0.12483019999999999,0.028618900000000003
51078,14:23:56.793000,1.5824993,-0.9193339,9.6290646,-0.0408631,0.12116500000000001,-0.009254700000000001
51079,14:23:56.807000,1.4963118,-0.8211759,9.6290646,0.029997199999999998,0.126052,-0.0422414
51080,14:23:56.813000,1.4220946,-0.6775299,9.5476656,0.029997199999999998,0.126052,-0.0422414
51081,14:23:56.823000,1.3143603000000001,-0.42136140000000005,9.4758434,0.19004379999999998,0.1419345,-0.1033279
51082,14:23:56.832000,1.1108619,-0.0646407,9.427961300000002,0.19004379999999998,0.1419345,-0.1033279
51083,14:23:56.841000,1.0079155999999998,0.24419810000000003,9.427961300000002,0.2572389,0.1504866,-0.1289842
51084,14:23:56.853000,0.82357,0.6703475999999999,9.3944426,0.3256558,0.16636900000000002,-0.14975360000000001
51085,14:23:56.861000,0.6511949,0.8906046999999999,9.3154383,0.3256558,0.16636900000000002,-0.14975360000000001
51086,14:23:56.871000,0.5889483,1.1563497999999999,9.2484026,0.2828952,0.1517083,-0.1216538
51087,14:23:56.880000,0.5865541999999999,1.2664783000000002,9.2962847,0.2828952,0.1517083,-0.1216538
51088,14:23:56.890000,0.5243076,1.2449313,9.2651625,0.22180879999999997,0.12727370000000002,-0.1033279
51089,14:23:56.902000,0.5195194000000001,1.2856309,9.3202257,0.1460615,0.1052825,-0.0740064
51090,14:23:56.909000,0.5985246999999999,1.1443793,9.370502499999999,0.0654274,0.0820697,-0.0422414
51091,14:23:56.923000,0.7445647,0.9073634,9.3968382,-0.09339739999999999,0.0246484,0.011514700000000001
51092,14:23:56.929000,0.82357,0.6655594,9.3609257,-0.09339739999999999,0.0246484,0.011514700000000001
51093,14:23:56.940000,0.9097575000000001,0.4093909,9.4590836,-0.19235750000000001,-0.022999000000000002,0.0579404
51094,14:23:56.947000,1.0174919,0.2777155,9.533301400000001,-0.19235750000000001,-0.022999000000000002,0.0579404
51095,14:23:56.957000,1.139591,0.1101285,9.480630900000001,-0.21557039999999997,-0.0425467,0.064049
51096,14:23:56.969000,1.2449313,-0.0861876,9.4447203,-0.2497788,-0.07308989999999999,0.0628273
51097,14:23:56.976000,1.3430893,-0.24419810000000003,9.4519024,-0.2497788,-0.07308989999999999,0.0628273
51098,14:23:56.987000,1.4963118,-0.435726,9.461478199999998,-0.2571092,-0.09263760000000001,0.053053499999999996
51099,14:23:56.996000,1.551376,-0.5745836999999999,9.420779199999998,-0.2571092,-0.09263760000000001,0.053053499999999996
51100,14:23:57.006000,1.5896816,-0.6464066999999999,9.370502499999999,-0.2497788,-0.09263760000000001,0.0481665
51101,14:23:57.017000,1.6686869,-0.6847122,9.3489561,-0.20335309999999998,-0.0950811,0.040836199999999996
51102,14:23:57.025000,1.7788153999999998,-0.6847122,9.478237199999999,-0.20335309999999998,-0.0950811,0.040836199999999996
51103,14:23:57.036000,1.7309333999999998,-0.8187817,9.415989900000001,-0.1569273,-0.07186820000000001,0.015179900000000001
51104,14:23:57.045000,1.7548743000000002,-0.895393,9.2819214,-0.1569273,-0.07186820000000001,0.015179900000000001
51105,14:23:57.054000,1.8051505,-0.8858166,9.298680300000001,-0.1263841,-0.062094399999999994,0.013958100000000001
51106,14:23:57.064000,1.7117807,-0.7589293,9.303467800000002,-0.0836236,-0.0572075,0.012736399999999998
51107,14:23:57.074000,1.6423517,-0.5219135,9.4040203,-0.0408631,-0.0401032,0.0090712
51108,14:23:57.086000,1.6375635,-0.35432659999999994,9.471055,0.011671299999999999,-0.0156687,-0.009254700000000001
51109,14:23:57.105000,1.6686869,-0.2034984,9.511754,0.0080061,-0.009559999999999999,-0.012919899999999998
51110,14:23:57.112000,1.5992579,-0.22743939999999999,9.511754,0.0080061,-0.009559999999999999,-0.012919899999999998
51111,14:23:57.122000,1.551376,-0.28010959999999996,9.516543400000002,-0.018871900000000004,-0.0046731,-0.004367800000000001
51112,14:23:57.134000,1.5824993,-0.2370158,9.480630900000001,-0.020093700000000003,-0.009559999999999999,-0.0068113
51113,14:23:57.141000,1.5346173,-0.265745,9.447114,-0.020093700000000003,-0.009559999999999999,-0.0068113
51114,14:23:57.153000,1.5394055,-0.21068070000000003,9.3944426,-0.013985,-0.0071166,-0.0019244
51115,14:23:57.161000,1.5106763,-0.1891338,9.3345909,-0.013985,-0.0071166,-0.0019244
51116,14:23:57.171000,1.5441937,-0.1891338,9.341773,-0.013985,-0.0058948,0.0017408
51117,14:23:57.181000,1.4747648000000002,-0.1987102,9.406414,-0.0152067,-0.0034514000000000003,0.0017408
51118,14:23:57.191000,1.5106763,-0.1556164,9.4375372,-0.0152067,0.0002138,0.0041843
51119,14:23:57.202000,1.4580061000000002,-0.11252260000000001,9.4351435,-0.018871900000000004,0.0051007,0.0078495
51120,14:23:57.210000,1.4699767,-0.13885770000000003,9.4758434,-0.018871900000000004,0.0051007,0.0078495
51121,14:23:57.220000,1.4292768999999999,-0.1580105,9.542878199999999,-0.0237588,0.007544199999999999,0.0078495
51122,14:23:57.229000,1.4125183000000001,-0.2250453,9.528513,-0.034754400000000005,0.014874600000000002,0.015179900000000001
51123,14:23:57.238000,1.3742126000000001,-0.2250453,9.542878199999999,-0.032311,0.017318,0.0212885
51124,14:23:57.251000,1.3766067,-0.2298335,9.487813000000001,-0.0298675,0.023426699999999998,0.0261754
51125,14:23:57.256000,1.3311188,-0.2250453,9.4375372,-0.0298675,0.023426699999999998,0.0261754
51126,14:23:57.266000,1.1922611,-0.2633509,9.552454,-0.028645799999999996,0.0332005,0.0335058
51127,14:23:57.276000,1.1778966,-0.3112328,9.487813000000001,-0.028645799999999996,0.04541780000000001,0.0445014
51128,14:23:57.287000,1.1539556,-0.3495384,9.4519024,-0.027424,0.05519169999999999,0.056718700000000004
51129,14:23:57.300000,1.1012853,-0.4046027,9.471055,-0.0127633,0.07473930000000001,0.0738229
51130,14:23:57.306000,0.9552454,-0.4381201,9.3345909,-0.0127633,0.07473930000000001,0.0738229
51131,14:23:57.317000,0.8187817,-0.435726,9.3345909,-0.0017676999999999999,0.0881784,0.0848184
51132,14:23:57.326000,0.7349883,-0.3423561,9.303467800000002,0.0165582,0.0906218,0.09092710000000001
51133,14:23:57.335000,0.4931844,-0.2633509,9.200521499999999,0.032440699999999996,0.080848,0.0799315
51134,14:23:57.346000,0.4692433,-0.05745840000000001,9.2651625,0.0483232,0.0246484,0.0493883
51135,14:23:57.355000,0.42136140000000005,0.0526702,9.2412214,0.0483232,0.0246484,0.0493883
51136,14:23:57.367000,0.48839620000000006,0.0646407,9.3633204,-0.0017676999999999999,-0.07797689999999999,-0.008033
51137,14:23:57.375000,0.6703475999999999,0.0263351,9.471055,-0.0017676999999999999,-0.07797689999999999,-0.008033
51138,14:23:57.384000,0.9360925999999999,-0.08379349999999999,9.5356951,-0.0946192,-0.190376,-0.055680499999999994
51139,14:23:57.394000,1.1419852,-0.2537745,9.4926023,-0.0946192,-0.190376,-0.055680499999999994
51140,14:23:57.403000,1.3933655,-0.435726,9.5021782,-0.149597,-0.2380234,-0.0642326
51141,14:23:57.416000,1.6974159,-0.6009188,9.4926023,-0.2290094,-0.31010540000000003,-0.0752281
51142,14:23:57.424000,1.9128848000000003,-0.7637175,9.4423246,-0.2290094,-0.31010540000000003,-0.0752281
51143,14:23:57.433000,2.0541368,-0.9360925999999999,9.4566898,-0.2619961,-0.32720970000000005,-0.0630108
51144,14:23:57.442000,2.2983347999999997,-1.1060736,9.4016256,-0.2619961,-0.32720970000000005,-0.0630108
51145,14:23:57.452000,2.4371924,-1.2784487,9.2172804,-0.2619961,-0.32720970000000005,-0.0495718
51146,14:23:57.463000,2.5521092,-1.3263308,9.2819214,-0.2485571,-0.3223227,-0.03857619999999999
51147,14:23:57.471000,2.7939133999999997,-1.4963118,9.169398300000001,-0.2204573,-0.31499240000000006,-0.019028599999999996
51148,14:23:57.482000,2.7795486,-1.4292768999999999,9.2412214,-0.1251624,-0.2551276,-0.0239155
51149,14:23:57.491000,2.8298247,-1.4029418,9.195733099999998,-0.1251624,-0.2551276,-0.0239155
51150,14:23:57.501000,2.8202484,-1.2736604999999999,9.2292509,0.010449600000000002,-0.17815870000000003,-0.0104765
51151,14:23:57.510000,2.8058836,-1.1084677,9.2053099,0.010449600000000002,-0.17815870000000003,-0.0104765
51152,14:23:57.519000,2.7795486,-0.9265162,9.238826800000002,0.0654274,-0.1488372,-0.0116982
51153,14:23:57.531000,2.7508194,-0.7565352,9.246008900000001,0.1289573,-0.10852010000000001,-0.0116982
51154,14:23:57.539000,2.66942,-0.6176775,9.358532,0.1289573,-0.10852010000000001,-0.0116982
51155,14:23:57.549000,2.6502673999999997,-0.5769778,9.3944426,0.1411746,-0.07186820000000001,-0.021472
51156,14:23:57.559000,2.6718142000000005,-0.5554309000000001,9.3561382,0.1411746,-0.07186820000000001,-0.021472
51157,14:23:57.568000,2.6359026,-0.48600200000000005,9.3369846,0.15217020000000003,-0.058429199999999994,-0.025137200000000002
51158,14:23:57.581000,2.5712618999999997,-0.3902381,9.293891,0.2022611,-0.0217773,-0.0239155
51159,14:23:57.588000,2.4826806,-0.22743939999999999,9.3154383,0.2022611,-0.0217773,-0.0239155
51160,14:23:57.599000,2.4108574000000003,-0.0359115,9.3082561,0.26212579999999996,0.0344222,-0.017806799999999998
51161,14:23:57.616000,2.2001767000000005,0.316021,9.384866699999998,0.26212579999999996,0.0344222,-0.017806799999999998
51162,14:23:57.630000,2.0924423,0.44051409999999996,9.408807800000002,0.297556,0.126052,0.011514700000000001
51163,14:23:57.635000,1.8889439,0.5554309000000001,9.339379300000001,0.2963343,0.1553735,0.029840600000000002
51164,14:23:57.648000,1.7285392,0.6511949,9.301074,0.2963343,0.1810298,0.0481665
51165,14:23:57.654000,1.5370114,0.8044171999999999,9.257980300000002,0.29266909999999996,0.1993557,0.0652708
51166,14:23:57.663000,1.3023897,1.0270684,9.2603741,0.2792301,0.2103513,0.0774881
51167,14:23:57.673000,1.1826848,1.2066257,9.212492,0.24624339999999997,0.21523820000000002,0.09092710000000001
51168,14:23:57.683000,1.0821326,1.3981537,9.298680300000001,0.24624339999999997,0.21523820000000002,0.09092710000000001
51169,14:23:57.694000,1.0127038000000002,1.5058881000000002,9.427961300000002,0.1888221,0.20668609999999998,0.10192260000000002
51170,14:23:57.702000,1.0486152,1.3502717,9.571606599999999,0.09963580000000001,0.18591670000000002,0.11047470000000001
51171,14:23:57.712000,1.2425373,0.8570873999999999,9.4973898,-0.018871900000000004,0.1517083,0.1153617
51172,14:23:57.722000,1.3502717,0.36390300000000003,9.4447203,-0.1520405,0.11139120000000001,0.11169649999999999
51173,14:23:57.731000,1.4053360000000001,-0.14604,9.423173,-0.2583309,0.0784045,0.1129182
51174,14:23:57.741000,1.4819472,-0.4788198,9.480630900000001,-0.32186079999999995,0.0478613,0.11047470000000001
51175,14:23:57.750000,1.5848933,-0.7828703,9.4566898,-0.3414085,0.0197615,0.0848184
51176,14:23:57.762000,1.673475,-0.9696100000000001,9.2603741,-0.3279695,-0.0058948,0.0445014
51177,14:23:57.771000,1.7859976000000002,-1.0342506999999999,9.2627678,-0.28643070000000004,-0.0266642,0.0078495
51178,14:23:57.780000,1.8434560000000002,-1.1132559,9.3226213,-0.1740316,-0.030329400000000003,-0.055680499999999994
51179,14:23:57.790000,1.7141746999999998,-0.9815805000000001,9.3537436,-0.1740316,-0.030329400000000003,-0.055680499999999994
51180,14:23:57.800000,1.5777111000000001,-0.8211759,9.3968382,-0.11172339999999999,-0.0022296,-0.07767160000000001
51181,14:23:57.811000,1.6543223000000002,-0.6392244,9.4590836,-0.0494152,0.0160963,-0.08011510000000001
51182,14:23:57.820000,1.6878396,-0.48839620000000006,9.5309067,-0.006654600000000001,0.0209832,-0.0862237
51183,14:23:57.830000,1.6615044999999997,-0.4788198,9.6075182,-0.004211199999999999,0.0380874,-0.07156289999999998
51184,14:23:57.840000,1.6638986,-0.5865541999999999,9.6123056,-0.004211199999999999,0.0380874,-0.07156289999999998
51185,14:23:57.849000,1.7117807,-0.7445647,9.597942399999999,-0.0249806,0.0466395,-0.0459066
51186,14:23:57.859000,1.6375635,-0.8666638000000001,9.5644236,-0.0384196,0.0564134,-0.021472
51187,14:23:57.869000,1.5944698,-0.9887628,9.5811834,-0.037197900000000006,0.0637438,0.0041843
51188,14:23:57.879000,1.6136225,-1.0079155999999998,9.5692129,-0.0213154,0.0661872,0.018844999999999997
51189,14:23:57.888000,1.5298291000000002,-1.0079155999999998,9.6147013,0.005562699999999999,0.0698524,0.023732
51190,14:23:57.898000,1.4675825,-0.9648218000000001,9.5811834,0.0703143,0.080848,0.037170999999999996
51191,14:23:57.907000,1.3622421,-1.0103096999999999,9.5237246,0.0703143,0.080848,0.037170999999999996
51192,14:23:57.916000,1.2640841,-1.0007333,9.4303551,0.1008576,0.080848,0.0396144
51193,14:23:57.930000,1.2185962,-0.8882107,9.4135962,0.17538299999999998,0.0820697,0.0396144
51194,14:23:57.936000,1.0893148000000001,-0.6607713000000001,9.3657141,0.17538299999999998,0.0820697,0.0396144
51195,14:23:57.946000,1.0127038000000002,-0.45727290000000004,9.4040203,0.2169219,0.0796262,0.037170999999999996
51196,14:23:57.956000,0.9743982,-0.3040505,9.392048800000001,0.24868679999999999,0.07107410000000002,0.035949300000000003
51197,14:23:57.965000,0.9624277,-0.1364636,9.382473,0.2694562,0.022205000000000003,0.0322841
51198,14:23:57.978000,0.9672159,-0.0502761,9.351349800000001,0.25846060000000004,-0.0120035,0.0261754
51199,14:23:57.985000,1.0701622,0.055064300000000004,9.3537436,0.25846060000000004,-0.0120035,0.0261754
51200,14:23:57.995000,1.1802906000000002,0.1197049,9.310649900000001,0.22058699999999998,-0.08408550000000001,0.005406
51201,14:23:58.004000,1.3191483999999998,0.1532223,9.2699499,0.22058699999999998,-0.08408550000000001,0.005406
51202,14:23:58.014000,1.4412475,0.28010959999999996,9.2484026,0.2034828,-0.10852010000000001,-0.0019244
51203,14:23:58.026000,1.5609524,0.3064446,9.2867088,0.18515689999999999,-0.12073740000000001,-0.0019244
51204,14:23:58.033000,1.6806574,0.3902381,9.2484026,0.14972670000000002,-0.1231808,0.0090712
51205,14:23:58.047000,1.8482443,0.3926322,9.382473,0.13017910000000002,-0.11951569999999999,0.015179900000000001
51206,14:23:58.052000,1.8769734,0.3806617,9.3226213,0.13017910000000002,-0.11951569999999999,0.015179900000000001
51207,14:23:58.063000,1.8865498,0.32559740000000004,9.219674099999999,0.0971924,-0.10974180000000001,0.0322841
51208,14:23:58.072000,2.0182252,0.2968683,9.1095457,0.0971924,-0.10974180000000001,0.0322841
51209,14:23:58.082000,2.0613191000000004,0.3902381,9.1909447,0.0861968,-0.1109636,0.029840600000000002
51210,14:23:58.100000,2.0924423,0.5267016999999999,9.298680300000001,0.0837533,-0.10729839999999999,0.0212885
51211,14:23:58.111000,2.1546887999999997,0.5602191,9.293891,0.058097,-0.09263760000000001,0.0017408
51212,14:23:58.120000,2.2767880000000003,0.5195194000000001,9.2914972,0.031219,-0.0901942,-0.0116982
51213,14:23:58.129000,2.2911525,0.48839620000000006,9.257980300000002,-0.004211199999999999,-0.08408550000000001,-0.017806799999999998
51214,14:23:58.142000,2.2887584999999997,0.3902381,9.2819214,-0.0445282,-0.0767551,-0.017806799999999998
51215,14:23:58.149000,2.327064,0.33517379999999997,9.2795267,-0.0799584,-0.0706465,-0.0165851
51216,14:23:58.163000,2.3581872,0.2513804,9.341773,-0.12882760000000001,-0.0633161,-0.027580700000000003
51217,14:23:58.168000,2.3486105999999998,0.2250453,9.384866699999998,-0.12882760000000001,-0.0633161,-0.027580700000000003
51218,14:23:58.178000,2.3246701,0.07421710000000001,9.4399309,-0.1581491,-0.049877099999999994,-0.03613280000000001
51219,14:23:58.188000,2.3773401,0.09815800000000001,9.4590836,-0.1581491,-0.049877099999999994,-0.03613280000000001
51220,14:23:58.197000,2.3821282000000004,-0.0790053,9.3609257,-0.1752533,-0.0315511,-0.0349111
51221,14:23:58.210000,2.3438227000000005,-0.1651928,9.3082561,-0.1801402,-0.022999000000000002,-0.025137200000000002
51222,14:23:58.218000,2.2289058999999996,-0.18434560000000003,9.2914972,-0.1740316,-0.0071166,-0.012919899999999998
51223,14:23:58.227000,2.1283537999999997,-0.3112328,9.2484026,-0.1703664,0.0124311,-0.0116982
51224,14:23:58.235000,1.9775256,-0.23462170000000002,9.3321972,-0.1703664,0.0124311,-0.0116982
51225,14:23:58.245000,1.8841558,-0.1268872,9.4423246,-0.17158810000000002,0.025870099999999997,-0.019028599999999996
51226,14:23:58.254000,1.7548743000000002,-0.055064300000000004,9.4351435,-0.16670120000000002,0.0295353,-0.0288024
51227,14:23:58.265000,1.6638986,0.045487900000000005,9.423173,-0.1703664,0.025870099999999997,-0.0349111
51228,14:23:58.278000,1.4723707000000001,0.0263351,9.463872,-0.22656590000000001,0.0185398,-0.012919899999999998
51229,14:23:58.285000,1.2736604999999999,-0.0622466,9.423173,-0.22656590000000001,0.0185398,-0.012919899999999998
51230,14:23:58.294000,1.0749503,-0.17955739999999998,9.3298035,-0.2558874,0.0197615,-0.004367800000000001
51231,14:23:58.305000,1.0581916999999998,-0.1436459,9.272343600000001,-0.26810470000000003,0.0185398,-0.0007026
51232,14:23:58.314000,1.1132559,-0.10773440000000001,9.2603741,-0.20824,-0.0156687,-0.039798
51233,14:23:58.325000,1.2664783000000002,0.05745840000000001,9.2651625,-0.1483752,-0.0376598,-0.0617891
51234,14:23:58.333000,1.3837892,0.2920801,9.4016256,-0.1483752,-0.0376598,-0.0617891
51235,14:23:58.344000,1.5896816,0.5267016999999999,9.5500603,-0.09339739999999999,-0.0828638,-0.0544587
51236,14:23:58.353000,1.8314854999999999,0.7469588,9.533301400000001,-0.09339739999999999,-0.0828638,-0.0544587
51237,14:23:58.362000,1.9080968,0.7206236999999999,9.200521499999999,-0.1459318,-0.1280678,-0.0373545
51238,14:23:58.375000,1.9104908,0.8139936,8.9850531,-0.36706479999999997,-0.1500589,-0.09477580000000001
51239,14:23:58.381000,2.2336943,0.9025753000000001,8.937171000000001,-0.36706479999999997,-0.1500589,-0.09477580000000001
51240,14:23:58.392000,2.592809,0.8355404000000001,9.0975752,-0.6065238000000001,-0.1806021,-0.17174479999999998
51241,14:23:58.402000,2.7819428,0.6990768,9.272343600000001,-0.6065238000000001,-0.1806021,-0.17174479999999998
51242,14:23:58.411000,2.8777068,0.3519325,9.3800793,-0.7910049,-0.11829389999999998,-0.1766317
51243,14:23:58.421000,2.786731,0.1651928,9.4997845,-0.7910049,-0.11829389999999998,-0.1766317
51244,14:23:58.430000,2.6335083999999997,0.08379349999999999,9.619488699999998,-0.8191046999999999,-0.0339946,-0.17174479999999998
51245,14:23:58.442000,2.2911525,-0.055064300000000004,9.794258099999999,-0.8252132999999999,0.17858629999999998,-0.13753629999999997
51246,14:23:58.450000,1.8697912,-0.2130748,9.8181992,-0.8252132999999999,0.17858629999999998,-0.13753629999999997
51247,14:23:58.460000,1.3526658,-0.36869120000000005,9.7391939,-0.8508697000000001,0.3422981,-0.09966269999999999
51248,14:23:58.469000,1.0031273,-0.5195194000000001,9.753558199999999,-0.8508697000000001,0.3422981,-0.09966269999999999
51249,14:23:58.479000,0.7685057,-0.28729190000000004,9.597942399999999,-0.8081092,0.35818059999999996,-0.0740064
51250,14:23:58.490000,0.44530240000000004,-0.20110429999999999,9.552454,-0.6395105,0.3520719,-0.033689300000000005
51251,14:23:58.498000,0.2944742,-0.28010959999999996,9.5380888,-0.6395105,0.3520719,-0.033689300000000005
51252,14:23:58.509000,0.1436459,-0.32559740000000004,9.4949961,-0.5600980999999999,0.3386329,-0.039798
51253,14:23:58.518000,0.0885817,-0.14604,9.4590836,-0.5600980999999999,0.3386329,-0.039798
51254,14:23:58.528000,0.10294629999999999,-0.11252260000000001,9.423173,-0.5710937,0.21279479999999998,-0.0630108
51255,14:23:58.540000,0.3279915,0.0167587,9.2029161,-0.6431756999999999,0.12116500000000001,-0.0788933
51256,14:23:58.547000,0.7589293,-0.1963161,9.107152000000001,-0.6431756999999999,0.12116500000000001,-0.0788933
51257,14:23:58.558000,1.1587437,-0.5410663,9.0592699,-0.9510514999999999,-0.0535423,-0.1155452
51258,14:23:58.566000,1.5322232,-1.2042316000000002,8.9754763,-0.9510514999999999,-0.0535423,-0.1155452
51259,14:23:58.576000,1.9344318,-2.0230136,8.7576132,-1.1367544,-0.10974180000000001,-0.11676689999999999
51260,14:23:58.589000,2.1163833,-3.1338751,8.7600069,-1.4189739,-0.1366199,-0.1534188
51261,14:23:58.595000,2.2360882999999996,-4.1202440000000005,8.5948153,-1.4336346000000002,-0.131733,-0.1790751
51262,14:23:58.606000,2.4587395,-4.9893022,8.8438005,-1.3224573,-0.1341764,-0.2242791
51263,14:23:58.615000,2.5090156,-5.4681215,8.7719784,-1.3224573,-0.1341764,-0.2242791
51264,14:23:58.625000,2.5138037,-5.5997968,8.7983131,-0.8215482,-0.08164199999999999,-0.3207957
51265,14:23:58.635000,2.4467689999999997,-5.3364458,8.7983131,-0.8215482,-0.08164199999999999,-0.3207957
51266,14:23:58.643000,2.2839704,-4.5918813,8.8821058,-0.49656819999999996,-0.0535423,-0.36111279999999996
51267,14:23:58.656000,2.2456646,-3.8233757000000006,8.961112,0.06664910000000002,-0.0266642,-0.3721084
51268,14:23:58.663000,2.2887584999999997,-3.1123283,9.143062599999999,0.06664910000000002,-0.0266642,-0.3721084
51269,14:23:58.674000,2.2935464,-2.5952029,9.1741858,0.2853387,0.0051007,-0.4063168
51270,14:23:58.683000,2.1906002,-2.4635274,9.0401173,0.2853387,0.0051007,-0.4063168
51271,14:23:58.692000,2.1235654,-2.5832324,8.958718300000001,0.2682345,0.030757099999999996,-0.40265159999999994
51272,14:23:58.701000,2.0445604,-2.7340607999999995,8.819860499999999,0.20836970000000002,0.0564134,-0.3879909
51273,14:23:58.723000,2.0158311999999996,-3.1434517000000004,8.7288837,0.10452269999999998,0.094287,-0.3501172
51274,14:23:58.731000,2.0541368,-3.2583685,8.783947900000001,0.10452269999999998,0.094287,-0.3501172
51275,14:23:58.740000,2.0780778000000004,-3.3086444999999998,8.884499499999999,0.1448398,0.0845132,-0.36477800000000005
51276,14:23:58.750000,2.056531,-3.272733,8.9850531,0.1448398,0.0845132,-0.36477800000000005
51277,14:23:58.760000,2.0756836,-3.2344275000000002,9.107152000000001,0.2352478,0.0918435,-0.36477800000000005
51278,14:23:58.773000,2.0254076000000003,-3.3062503,9.2795267,0.28045180000000003,0.0967304,-0.3757736
51279,14:23:58.780000,1.9823137999999998,-3.3517382000000007,9.4112024,0.28045180000000003,0.0967304,-0.3757736
51280,14:23:58.789000,1.8003622,-3.1889396,9.487813000000001,0.3904074,0.1297171,-0.3696649
51281,14:23:58.799000,1.6662928,-3.0764169999999997,9.605124499999999,0.3904074,0.1297171,-0.3696649
51282,14:23:58.808000,1.6255928999999998,-3.0045941000000003,9.4758434,0.4527156,0.12849539999999998,-0.3525607
51283,14:23:58.821000,1.7141746999999998,-2.7388489,9.4519024,0.5895493,0.0735176,-0.3696649
51284,14:23:58.828000,1.8219091,-2.4347985,9.3489561,0.5895493,0.0735176,-0.3696649
51285,14:23:58.839000,1.8290915,-2.1953886000000002,9.238826800000002,0.7166092,0.0124311,-0.3928778
51286,14:23:58.847000,1.8458501,-1.8769734,9.4016256,0.7166092,0.0124311,-0.3928778
51287,14:23:58.856000,1.7405096999999998,-1.6279871000000001,9.3345909,0.7630349000000001,0.007544199999999999,-0.3806605
51288,14:23:58.866000,1.673475,-1.3933655,9.4495077,0.8033520000000001,0.030757099999999996,-0.3708867
51289,14:23:58.875000,1.5992579,-1.1802906000000002,9.9379044,0.8277866,0.0478613,-0.34889549999999997
51290,14:23:58.888000,1.4939176,-0.8020231,10.4478474,0.9096424999999999,0.0637438,-0.27192659999999996
51291,14:23:58.896000,1.4627944,-0.40220859999999997,10.768655800000001,0.9096424999999999,0.0637438,-0.27192659999999996
51292,14:23:58.905000,1.3694245,0.07661119999999999,11.3025398,1.0745759,0.05519169999999999,-0.1473102
51293,14:23:58.915000,1.2904191999999999,0.5195194000000001,12.1380806,1.0745759,0.05519169999999999,-0.1473102
51294,14:23:58.924000,0.9696100000000001,0.8690578999999999,12.7533636,1.1698707,0.0417526,-0.012919899999999998
51295,14:23:58.938000,0.3184151,1.3790008999999999,13.421318099999999,1.1271102,0.0185398,0.0738229
51296,14:23:58.944000,-0.2825037,1.6878396,13.8019791,1.1271102,0.0185398,0.0738229
51297,14:23:58.953000,-0.7924467,2.1283537999999997,13.883379000000001,1.0061591,-0.06942469999999999,0.1361311
51298,14:23:58.964000,-0.725412,1.9631610000000002,14.225734699999999,0.8277866,-0.24901900000000002,0.141018
51299,14:23:58.973000,-0.059852499999999996,1.3406953000000001,13.9743538,0.5858842,-0.5068039000000001,0.1214703
51300,14:23:58.986000,0.7349883,1.1467732,13.5266581,0.2999994,-0.8097928000000001,0.035949300000000003
51301,14:23:58.993000,1.7548743000000002,0.5626131999999999,13.5194759,-0.000546,-1.1274423999999998,0.0017408
51302,14:23:59.003000,2.5377447999999996,-0.059852499999999996,12.6576004,-0.6395105,-1.5538261,-0.1240973
51303,14:23:59.012000,3.3804674,-0.4476965,11.877123800000001,-0.6395105,-1.5538261,-0.1240973
51304,14:23:59.022000,4.2519193,-0.6511949,10.6106462,-1.0548985,-1.8311586,-0.1851838
51305,14:23:59.031000,4.630187,-1.0486152,9.2244616,-1.0548985,-1.8311586,-0.1851838
51306,14:23:59.040000,4.534422900000001,-1.8051505,7.8430675999999995,-1.1844019,-1.8189414000000002,-0.2401616
51307,14:23:59.052000,4.4434476,-2.7508194,6.4497018,-1.2088364,-1.4768572,-0.22305740000000002
51308,14:23:59.060000,4.515270200000001,-3.3661027000000003,5.4681215,-1.2088364,-1.4768572,-0.22305740000000002
51309,14:23:59.071000,4.3045893,-3.3254032,4.9916959,-0.7604616999999999,-0.9771698,-0.3000264
51310,14:23:59.080000,3.8736517,-3.5073547,4.4745703,-0.7604616999999999,-0.9771698,-0.3000264
51311,14:23:59.090000,2.5090156,-2.5688679,4.917479,-0.4147123,-0.6937285,-0.4796206
51312,14:23:59.101000,1.7381157999999999,-1.3526658,4.759468599999999,-0.048193400000000004,-0.35042249999999997,-0.5602548
51313,14:23:59.109000,1.3502717,-0.11252260000000001,5.082671599999999,0.3280993,-0.2380234,-0.5089421
51314,14:23:59.122000,1.0869209,1.1228323,5.3244753,0.8338952,-0.2416886,-0.42586450000000003
51315,14:23:59.128000,0.8762401,2.2360882999999996,5.6931671999999995,0.8338952,-0.2416886,-0.42586450000000003
51316,14:23:59.139000,0.9887628,2.8226426,5.834418299999999,0.8302299999999999,-0.3039968,-0.1412015
51317,14:23:59.146000,1.3287247,3.3182209000000005,6.2653565,0.8302299999999999,-0.3039968,-0.1412015
51318,14:23:59.156000,1.5322232,3.5121427000000005,6.5981359,0.66774,-0.32720970000000005,-0.0104765
51319,14:23:59.168000,1.5082823,3.4259553,6.6747475000000005,0.1240704,-0.3174358,0.2118783
51320,14:23:59.176000,1.6136225,2.7436373,6.5909538,0.1240704,-0.3174358,0.2118783
51321,14:23:59.188000,1.8602147,1.7357216,6.3323908,-0.24122670000000002,-0.33209659999999996,0.2827386
51322,14:23:59.196000,2.2767880000000003,0.7278060000000001,6.0618582000000005,-0.8997389000000001,-0.45671300000000004,0.3291643
51323,14:23:59.217000,3.442714,-0.8163876999999999,6.052281400000001,-1.1648542,-0.6130943,0.35970759999999996
51324,14:23:59.223000,3.9454749,-1.3191483999999998,6.2246566,-1.1648542,-0.6130943,0.35970759999999996
51325,14:23:59.233000,4.2806487,-1.7620566000000002,6.5263127999999995,-1.1599673000000001,-0.7022805999999999,0.34871199999999997
51326,14:23:59.244000,4.613428599999999,-2.183418,6.5263127999999995,-1.1599673000000001,-0.7022805999999999,0.34871199999999997
51327,14:23:59.253000,5.082671599999999,-2.3845222,6.8303633,-1.1330892,-0.7242717,0.30961669999999997
51328,14:23:59.264000,5.4322099999999995,-2.6502673999999997,7.258907300000001,-1.0793331,-0.7413759,0.24608670000000002
51329,14:23:59.273000,5.8248425,-2.8489776,7.776032400000001,-1.0145814,-0.768254,0.1654526
51330,14:23:59.287000,6.2078981,-2.9112239,8.5493269,-0.8985171000000001,-0.7144979,-0.0068113
51331,14:23:59.292000,6.1863508000000005,-3.0189586,8.9659004,-0.8985171000000001,-0.7144979,-0.0068113
51332,14:23:59.302000,6.0642519,-3.4235613,9.5452719,-0.7934484,-0.5544513000000001,-0.07156289999999998
51333,14:23:59.312000,5.6500731,-3.610301,10.0815496,-0.7934484,-0.5544513000000001,-0.07156289999999998
51334,14:23:59.321000,5.37954,-3.6198773,10.5124884,-0.6859361999999999,-0.48114759999999995,-0.09477580000000001
51335,14:23:59.334000,5.1137948,-3.5384779,10.634587300000002,-0.3475172,-0.4640433,-0.0691195
51336,14:23:59.341000,4.9294496,-3.1793633,10.3999653,-0.3475172,-0.4640433,-0.0691195
51337,14:23:59.351000,4.7642565,-2.9399533,9.882840199999999,-0.1092799,-0.4884779,0.018844999999999997
51338,14:23:59.361000,4.685251200000001,-2.9758646,9.392048800000001,-0.0995061,-0.4652651,0.0420579
51339,14:23:59.370000,4.5655465,-3.0500817000000002,8.9228058,-0.0995061,-0.4652651,0.0420579
51340,14:23:59.385000,4.3045893,-3.4068023999999997,8.391316400000001,-0.19602270000000002,-0.3785223,0.13002239999999998
51341,14:23:59.389000,3.9837801,-3.6893062999999993,7.957984,-0.19602270000000002,-0.3785223,0.13002239999999998
51342,14:23:59.400000,3.8544991000000004,-3.9885685,7.6299925,-0.221679,-0.3846309,0.2631909
51343,14:23:59.408000,3.8114052000000003,-4.3045893,7.4360704,-0.221679,-0.3846309,0.2631909
51344,14:23:59.419000,3.7898582999999997,-4.524846599999999,7.395371000000001,-0.1349362,-0.46282159999999994,0.3438251
51345,14:23:59.432000,3.8999867,-4.6900395999999995,7.3187599,-0.059189,-0.49703,0.3755901
51346,14:23:59.438000,3.978992,-4.5655465,7.3642473,-0.059189,-0.49703,0.3755901
51347,14:23:59.450000,4.1178498,-4.3213482,7.448041,0.1387312,-0.5532296,0.40979849999999995
51348,14:23:59.457000,4.242342900000001,-3.7707055,7.543805099999999,0.1387312,-0.5532296,0.40979849999999995
51349,14:23:59.468000,4.407536,-2.9495296000000004,7.6850572,0.2352478,-0.5605600000000001,0.4110202
51350,14:23:59.477000,4.5846992,-2.1690536,7.8861612999999995,0.3097733,-0.5715555999999999,0.40124640000000006
51351,14:23:59.486000,4.7834096,-1.4532180000000001,8.082477599999999,0.3452035,-0.5813293,0.380477
51352,14:23:59.500000,4.958178500000001,-0.8834224,8.087266,0.2963343,-0.5825511,0.330386
51353,14:23:59.506000,4.9797254,-0.5195194000000001,8.0441723,0.2963343,-0.5825511,0.330386
51354,14:23:59.516000,4.7977738,-0.43333190000000005,7.922072900000001,0.1656092,-0.5507861,0.3328295
51355,14:23:59.525000,4.625399099999999,-0.20110429999999999,8.005866099999999,0.1656092,-0.5507861,0.3328295
51356,14:23:59.535000,4.5392108,-0.0119705,8.1447239,0.11674000000000001,-0.5642252,0.3438251
51357,14:23:59.548000,4.5846992,0.2250453,8.408075300000002,0.031219,-0.7108327,0.3743683
51358,14:23:59.554000,4.6206107,0.31362690000000004,8.5756617,0.031219,-0.7108327,0.3743683
51359,14:23:59.566000,4.8959322,-0.05745840000000001,8.8797121,-0.0494152,-0.8476664,0.4122419
51360,14:23:59.574000,5.3603868,-0.3974204,8.4439859,-0.16181429999999997,-0.9881653,0.43301130000000004
51361,14:23:59.583000,5.973276599999999,-0.7565352,8.613966900000001,-0.2913176,-1.1140033999999999,0.43301130000000004
51362,14:23:59.594000,6.5718012,-1.2545078,8.4655333,-0.4037167,-1.2068548000000001,0.46599799999999997
51363,14:23:59.603000,6.753752700000001,-1.6303812,8.5349617,-0.488016,-1.2349546,0.49531949999999997
51364,14:23:59.615000,6.8255754,-2.2911525,8.3961039,-0.623628,-1.0162652,0.6113838
51365,14:23:59.622000,6.6747475000000005,-2.6239324,8.3889217,-0.623628,-1.0162652,0.6113838
51366,14:23:59.631000,6.459278599999999,-2.7364547000000004,8.5086269,-0.6224062,-0.8904269,0.6468139
51367,14:23:59.641000,6.2246566,-2.6023853,8.4703207,-0.5649850000000001,-0.7829148,0.6712486
51368,14:23:59.651000,5.7913251,-2.4395863999999996,8.1590881,-0.5185592000000001,-0.7132761,0.6810223000000001
51369,14:23:59.664000,5.5112157,-2.3893106,7.936437599999999,-0.6138541999999999,-0.6155378,0.6663616
51370,14:23:59.670000,5.2382879,-2.5664737,7.3235478,-0.6138541999999999,-0.6155378,0.6663616
51371,14:23:59.682000,5.018031099999999,-2.4826806,6.909369,-0.7103708000000001,-0.6069857,0.6541443
51372,14:23:59.690000,4.9126905999999995,-2.5281682,6.516737,-0.7946701,-0.6106509,0.6553661
51373,14:23:59.700000,4.9438138,-2.279182,6.365908599999999,-0.8679739,-0.6289768,0.6651399
51374,14:23:59.719000,5.2789874,-1.8626089,6.169592400000001,-0.9290603000000001,-0.6741808000000001,0.687131
51375,14:23:59.733000,5.499245200000001,-2.0062547,5.7099257,-1.3261225,-0.7132761,0.8300734000000001
51376,14:23:59.739000,5.6931671999999995,-2.1403244,5.5495209999999995,-1.3261225,-0.7132761,0.8300734000000001
51377,14:23:59.749000,5.6452851,-3.4905961000000003,4.8911432999999995,-1.590016,-0.7389325,0.9717939
51378,14:23:59.759000,6.023552400000001,-2.0780778000000004,5.331657900000001,-1.590016,-0.7389325,0.9717939
51379,14:23:59.768000,6.3204203,-2.159477,5.4633335999999995,-1.4580692,-0.8171232,1.075641
51380,14:23:59.780000,6.3563317999999995,-2.3150935,5.530367900000001,-1.5790205,-0.8354491,1.2356876
51381,14:23:59.787000,6.0570698,-2.8537657000000003,5.3579931,-1.5790205,-0.8354491,1.2356876
51382,14:23:59.797000,6.004399299999999,-3.8401343999999997,5.2741995,-1.9821911,-0.7706975,1.4006211000000002
51383,14:23:59.806000,5.764989900000001,-4.6637044,5.1090064,-1.9821911,-0.7706975,1.4006211000000002
51384,14:23:59.816000,5.365175700000001,-5.6979551,4.7020102,-2.2656324,-0.7621453,1.5411198999999998
51385,14:23:59.829000,5.164071099999999,-6.8255754,4.3572593,-2.3645926,-0.795132,1.5631111
51386,14:23:59.835000,5.2119532,-7.6036577,4.2184019,-2.3645926,-0.795132,1.5631111
51387,14:23:59.846000,5.1664648,-8.0034723,3.9574451,-2.3035061000000003,-0.9490700000000001,1.4470468
51388,14:23:59.855000,5.116189,-7.957984,3.6629709999999998,-2.3035061000000003,-0.9490700000000001,1.4470468
51389,14:23:59.865000,5.1664648,-7.907708199999999,3.3900437000000005,-1.9663085999999999,-1.1005645,1.2625656
51390,14:23:59.874000,5.2981405,-7.6802687999999995,3.0093822,-1.9663085999999999,-1.1005645,1.2625656
51391,14:23:59.884000,5.4729095,-7.835885,1.649534,-1.7683885,-1.1714246000000001,1.1782663
51392,14:23:59.895000,5.4465747,-7.1583557,1.8506383999999998,-1.3798785,-1.1237773000000002,1.1574969
51393,14:23:59.903000,5.7314725,-6.990768400000001,1.5441937,-1.3798785,-1.1237773000000002,1.1574969
51394,14:23:59.914000,5.9373651,-7.081744199999999,0.8570873999999999,-1.2002844,-1.0981208999999998,1.1000756
51395,14:23:59.922000,6.2198687,-7.4336767,0.07661119999999999,-1.2002844,-1.0981208999999998,1.1000756
51396,14:23:59.932000,6.4449139,-7.953196000000001,-0.4620611,-1.1685193999999999,-1.0333693000000002,1.0597584999999998
51397,14:23:59.945000,6.6771417,-8.5469332,-0.8331464,-1.1880671,-0.8549968000000001,0.9901199
51398,14:23:59.952000,6.557436500000001,-8.9156237,-0.6966828,-1.1880671,-0.8549968000000001,0.9901199
51399,14:23:59.962000,6.3898497,-9.1837626,-0.5913424,-1.1758498,-0.5642252,0.9119292
51400,14:23:59.971000,6.310844400000001,-9.8948097,-0.5937365,-1.1758498,-0.5642252,0.9119292
51401,14:23:59.981000,6.3012681,-10.845267300000001,-0.14604,-1.161189,-0.45549120000000004,0.8520645
51402,14:23:59.989000,5.726684099999999,-11.838817599999999,0.3303856,-1.1526368999999999,-0.34309209999999996,0.7750954999999999
51403,14:24:00,5.4824858,-12.238633199999999,-0.7206236999999999,-1.1966192,-0.26245799999999997,0.6370401
51404,14:24:00.011000,5.4872746,-13.9384432,0.1891338,-1.075668,-0.2771187,0.31450359999999994
51405,14:24:00.020000,4.7187686,-14.3598042,-1.6878396,-1.075668,-0.2771187,0.31450359999999994
51406,14:24:00.029000,3.8329519999999997,-11.6927776,-0.9265162,-0.104393,-0.0058948,0.19721760000000002
51407,14:24:00.039000,4.3500776,-10.0528212,-0.9839745999999999,-0.104393,-0.0058948,0.19721760000000002
51408,14:24:00.048000,5.422633599999999,-9.236433,-0.9289103000000001,0.23036089999999998,-0.0388815,0.0884836
51409,14:24:00.061000,5.5926147,-9.222067800000001,-0.9624277,0.4490505,0.0124311,-0.047128300000000005
51410,14:24:00.068000,5.4369984,-9.641036,-0.7972349,0.4490505,0.0124311,-0.047128300000000005
51411,14:24:00.078000,5.4106631,-10.105490699999999,-0.6559831,0.5064718,0.3655109,-0.10699310000000001
51412,14:24:00.087000,5.391510500000001,-10.3329296,-0.3902381,0.5064718,0.3655109,-0.10699310000000001
51413,14:24:00.098000,5.5016389000000006,-10.579522099999998,-0.3208092,0.8192345,0.5964178000000001,-0.2951394
51414,14:24:00.106000,5.530367900000001,-10.641769400000001,-0.3519325,0.8192345,0.5964178000000001,-0.2951394
51415,14:24:00.115000,5.767384099999999,-10.67768,-0.071823,0.9988286,0.6868258,-0.4112037
51416,14:24:00.129000,5.9373651,-10.5124884,0.1484341,1.3836734,0.7882293,-0.6567714
51417,14:24:00.136000,6.0570698,-10.088731800000001,0.3854499,1.3836734,0.7882293,-0.6567714
51418,14:24:00.146000,6.3012681,-9.8181992,0.6440126,1.7025448,0.8761938,-0.8571350000000001
51419,14:24:00.155000,6.2198687,-9.5141478,0.8068113,1.7025448,0.8761938,-0.8571350000000001
51420,14:24:00.164000,6.2916913,-9.4566898,1.0725563,1.7892876,0.9446107,-0.9328822
51421,14:24:00.176000,6.277327099999999,-9.207703599999999,1.3574538999999999,1.8063918,1.1046572000000001,-1.0660506
51422,14:24:00.183000,6.1169224,-9.1143341,1.4580061000000002,1.8063918,1.1046572000000001,-1.0660506
51423,14:24:00.194000,5.9206061,-8.8892889,1.6782633000000002,1.6707797999999998,1.3282337,-1.1332458
51424,14:24:00.203000,5.8128719,-8.62115,1.8123327,1.6707797999999998,1.3282337,-1.1332458
51425,14:24:00.213000,5.7482309,-8.1471176,2.0661073,1.5742631999999999,1.4235287,-1.1784497
51426,14:24:00.225000,5.8799067,-7.7736387,2.3318522,1.4887421,1.4992758999999998,-1.2114365
51427,14:24:00.232000,5.889483,-7.3762178,2.6502673999999997,1.439873,1.5676927999999999,-1.2590839
51428,14:24:00.247000,5.784142500000001,-6.9500684999999995,3.1626046000000003,1.4239905000000002,1.7301826,-1.3360528999999999
51429,14:24:00.264000,5.1951947,-6.0498877,3.4738371,1.5840371000000002,1.8218124,-1.3091747999999999
51430,14:24:00.272000,5.0252137,-5.5758562000000005,3.6605771000000003,1.6768884999999998,1.8120386999999998,-1.2713013000000002
51431,14:24:00.279000,4.9653611,-5.216741099999999,3.9047748999999996,1.6768884999999998,1.8120386999999998,-1.2713013000000002
51432,14:24:00.290000,4.6445513,-4.8265028,4.1274261,1.76974,1.7680563999999999,-1.2138799
51433,14:24:00.300000,4.390777099999999,-4.582305,4.4147182,1.76974,1.7680563999999999,-1.2138799
51434,14:24:00.310000,4.2998012999999995,-4.5966697,4.6972213,1.7575227,1.7631695,-1.2151017
51435,14:24:00.320000,4.237555,-4.7403154,4.8480501,1.7110968999999998,1.7521738999999998,-1.2468666000000002
51436,14:24:00.330000,3.9574451,-4.8887496,4.9605727,1.6915493000000001,1.7668345,-1.2676361
51437,14:24:00.340000,3.7060647000000007,-5.1281595,4.9031138,1.7172055,1.8095951000000001,-1.2774098999999999
51438,14:24:00.348000,2.8992536,-4.3931708,5.082671599999999,1.8002831999999998,1.8621293999999997,-1.2774098999999999
51439,14:24:00.360000,2.4443748,-3.7970405,5.5423384,2.0873897,1.9109986,-1.2322058999999999
51440,14:24:00.368000,2.2241178,-3.6342421000000003,5.8870888,2.0873897,1.9109986,-1.2322058999999999
51441,14:24:00.378000,1.9392200000000002,-3.1578162,6.346756,2.1765759,1.8499122,-1.2248755
51442,14:24:00.388000,1.6662928,-2.6095676,6.5071607,2.2694273,1.792491,-1.182115
51443,14:24:00.397000,1.79318,-2.3749461,6.701082700000001,2.4050392999999994,1.6617658,-1.0770463
51444,14:24:00.408000,2.0254076000000003,-2.4395863999999996,6.684323299999999,2.4184783,1.5847969,-1.0452813
51445,14:24:00.416000,1.9535846999999997,-2.3869164,6.6316533,2.4184783,1.5847969,-1.0452813
51446,14:24:00.426000,2.0038607,-2.5353506,6.5670128,2.4477997000000005,1.5518103,-1.0000774
51447,14:24:00.436000,1.7644508,-2.3797342999999995,6.217474500000001,2.5235469,1.529819,-0.9744209999999999
51448,14:24:00.446000,1.9511904999999998,-1.9703432,6.1959276,2.6518285,1.5188236000000002,-0.9695341000000001
51449,14:24:00.458000,1.9871020000000001,-1.1180441,6.3754849,2.9914694,1.4442979999999999,-1.059942
51450,14:24:00.465000,2.2959406,-0.5937365,6.5718012,2.9914694,1.4442979999999999,-1.059942
51451,14:24:00.478000,2.5018332,-0.0359115,6.8638811,3.1893895,1.3477814,-1.1735628999999999
51452,14:24:00.484000,2.619144,0.3495384,7.6204165999999995,3.1893895,1.3477814,-1.1735628999999999
51453,14:24:00.494000,2.7675784,0.7469588,8.2141533,3.1747289,1.3099077,-1.1650108000000001
51454,14:24:00.506000,2.8058836,1.6399577,9.712859199999999,3.0965381,1.2989123,-1.1210285
51455,14:24:00.514000,4.412324,2.0349839,11.731083900000002,2.6188418999999996,1.1608566999999999,-0.9731993
51456,14:24:00.524000,5.4369984,3.0644464,14.247282,2.2010104999999998,1.1449742,-0.7789443
51457,14:24:00.532000,5.0707011,3.7491589,15.971033100000001,2.2010104999999998,1.1449742,-0.7789443
51458,14:24:00.542000,5.0898538,2.5568974,16.8568497,1.5852588,1.2573733,-0.5773590000000001
51459,14:24:00.551000,4.522452400000001,0.47642559999999995,16.866426500000003,0.8839860999999999,1.4052026000000002,-0.4796206
51460,14:24:00.561000,3.4690489999999996,-0.7158355,16.966978100000002,0.5199108,1.5481451000000002,-0.4869509
51461,14:24:00.572000,2.2193296,-0.16758689999999998,16.5480118,1.8247178,1.6238923,-0.6799841999999999
51462,14:24:00.579000,0.9169398000000001,2.5377447999999996,14.6183672,2.9792521,1.4968324,-0.8522481
51463,14:24:00.589000,-0.7038651,5.046760099999999,12.377491000000001,2.9792521,1.4968324,-0.8522481
51464,14:24:00.599000,-2.0014665000000003,6.0905871,9.8349581,3.8356845,1.3636639,-1.0428379
51465,14:24:00.610000,-2.3917048,7.220602,8.6019974,4.2266383,1.2011738,-1.281075
51466,14:24:00.621000,-2.6550555,7.3163662,7.3762178,3.7269504,0.6440653000000001,-1.3873655
51467,14:24:00.629000,-2.8274305,6.6603823,5.7171078,3.7269504,0.6440653000000001,-1.3873655
51468,14:24:00.639000,-2.9471354,6.6340475,4.2758603,2.7532322,0.3679544,-1.2199886
51469,14:24:00.648000,-3.4882019,6.9428864,2.9231944,2.7532322,0.3679544,-1.2199886
51470,14:24:00.658000,-3.9430807,7.8334908,1.8410618000000003,2.4722345000000003,0.3398546,-1.1466848
51471,14:24:00.668000,-4.4482355,9.076027900000001,1.6782633000000002,2.2242234,0.27632470000000003,-1.0660506
51472,14:24:00.678000,-5.2598348,11.005672500000001,2.0182252,1.9505558999999997,0.1700342,-0.9976339
51473,14:24:00.690000,-5.7123194,13.0071383,2.6239324,1.1417711000000001,-0.03277290000000001,-0.6970884
51474,14:24:00.697000,-6.0642519,14.903265,4.7451034000000005,0.5858842,-0.1634979,-0.423421
51475,14:24:00.706000,-5.973276599999999,15.537700699999998,6.3299971,0.5858842,-0.1634979,-0.423421
51476,14:24:00.716000,-5.4609389,15.288715400000001,7.539017200000001,-0.050636900000000006,-0.3125489,-0.18274029999999997
51477,14:24:00.726000,-4.412324,14.4005041,8.020231200000001,-0.6896014,-0.4872562,0.082375
51478,14:24:00.739000,-3.4020143,12.2625742,7.7425156,-1.6779805,-0.9588438,0.7311133000000001
51479,14:24:00.746000,-2.0038607,9.861292800000001,6.861486900000001,-1.6779805,-0.9588438,0.7311133000000001
51480,14:24:00.758000,-0.1723751,7.5031056,6.023552400000001,-2.2778497000000004,-1.4340966,1.1648273
51481,14:24:00.775000,3.1913337999999998,4.802562200000001,5.4705157,-2.2778497000000004,-1.4340966,1.1648273
51482,14:24:00.785000,4.6637044,5.0778837,5.9230003,-2.4916522999999997,-1.6197993999999998,1.2283572
51483,14:24:00.794000,5.7602015,5.9756703,6.5718012,-2.4330093999999995,-1.5611565,1.2112530000000001
51484,14:24:00.805000,6.277327099999999,6.7441759,7.464799900000001,-2.4745481,-1.0602473,1.3102131000000001
51485,14:24:00.814000,6.0905871,7.390583,8.558902699999999,-2.4745481,-1.0602473,1.3102131000000001
51486,14:24:00.824000,5.5590972999999995,7.7425156,9.803834,-2.9974484,-0.2649015,1.5337896
51487,14:24:00.833000,5.0252137,7.539017200000001,10.890754699999999,-2.9974484,-0.2649015,1.5337896
51488,14:24:00.843000,4.464994,6.3922434,11.1804409,-3.3908453,0.023426699999999998,1.6217541000000002
51489,14:24:00.855000,3.5719953,3.4546845,10.3760242,-4.3095856,0.270216,1.6901709999999999
51490,14:24:00.862000,2.7603958,-0.8307523000000001,9.722435,-4.3095856,0.270216,1.6901709999999999
51491,14:24:00.872000,1.9847078000000002,-4.0220861,9.1670036,-5.1012664,0.1712559,1.4128383
51492,14:24:00.881000,1.6447458,-6.5502539,8.7719784,-5.1012664,0.1712559,1.4128383
51493,14:24:00.891000,2.0852599,-8.5253859,8.5708742,-4.9925323,-0.2477973,0.9620200999999999
51494,14:24:00.904000,2.3773401,-9.2627678,8.417651199999998,-4.580809599999999,-0.366305,0.7604348000000001
51495,14:24:00.911000,1.8314854999999999,-10.1557674,7.9938955,-4.580809599999999,-0.366305,0.7604348000000001
51496,14:24:00.922000,1.5346173,-10.6585283,7.7688502999999995,-3.3749627999999996,-0.3125489,0.7152308
51497,14:24:00.930000,1.6160166,-10.4382706,7.6587219,-3.3749627999999996,-0.3125489,0.7152308
51498,14:24:00.940000,2.2504527999999997,-9.408807800000002,8.0250187,-2.0212865,-0.4713737,0.6064969
51499,14:24:00.949000,2.9615002,-8.1255713,8.623543699999999,-2.0212865,-0.4713737,0.6064969
51500,14:24:00.959000,3.4020143,-6.796846400000001,9.1670036,-1.4922776000000002,-0.5410123,0.49287609999999993
51501,14:24:00.970000,3.5552367999999994,-5.726684099999999,9.528513,-0.9925903,-0.5984335999999999,0.2619692
51502,14:24:00.979000,3.5384779,-5.2119532,9.5309067,-0.9925903,-0.5984335999999999,0.2619692
51503,14:24:00.988000,3.2009101,-4.7977738,9.4351435,-0.9620470999999999,-0.6631852,0.0616056
51504,14:24:00.998000,2.6502673999999997,-4.4985113,9.107152000000001,-0.9620470999999999,-0.6631852,0.0616056
51505,14:24:01.008000,2.422828,-4.4817529,8.776765800000002,-0.9388341999999998,-0.7621453,0.0445014
51506,14:24:01.020000,2.2360882999999996,-4.1489735,8.585238499999999,-0.9119562,-0.8293405,0.056718700000000004
51507,14:24:01.027000,2.449163,-3.7515528,8.568478599999999,-0.9119562,-0.8293405,0.056718700000000004
51508,14:24:01.038000,2.8465835999999998,-3.3230089999999994,8.611573199999999,-0.9021823,-1.0016043,0.0469448
51509,14:24:01.047000,3.1482398999999996,-3.3661027000000003,8.451169,-0.9596037000000001,-1.052917,0.0445014
51510,14:24:01.056000,3.2368214,-3.4953842000000006,8.4559574,-0.9596037000000001,-1.052917,0.0445014
51511,14:24:01.068000,3.2751269,-3.9502629999999996,8.312311200000002,-1.0377944,-1.0761298000000001,0.0664925
51512,14:24:01.075000,2.9375593999999996,-4.1322145,8.357798599999999,-1.1074328000000002,-1.0895689,0.07870980000000001
51513,14:24:01.087000,2.7220902000000002,-4.096303,8.2021828,-1.1489717,-1.1421032,0.0897053
51514,14:24:01.095000,2.473104,-4.1010914,8.0848713,-1.1489717,-1.1421032,0.0897053
51515,14:24:01.105000,2.5042272,-4.0125093000000005,7.7927914000000005,-1.1355326000000001,-1.3265843000000002,0.059162099999999995
51516,14:24:01.114000,2.6981492,-3.9335042999999996,7.529440400000001,-1.1355326000000001,-1.3265843000000002,0.059162099999999995
51517,14:24:01.124000,2.8657362,-3.7467644,7.321154099999999,-1.1306458000000001,-1.4340966,0.056718700000000004
51518,14:24:01.135000,2.9112239,-3.6510005,7.1176553,-1.0793331,-1.5526042,0.1385745
51519,14:24:01.143000,3.0189586,-3.610301,6.9069747999999995,-1.0793331,-1.5526042,0.1385745
51520,14:24:01.153000,3.1338751,-3.5145371,6.7082644,-1.0060294,-1.6320166999999999,0.2741865
51521,14:24:01.163000,3.3972260999999997,-3.3517382000000007,6.516737,-1.0060294,-1.6320166999999999,0.2741865
51522,14:24:01.172000,3.8305580999999997,-3.3828616,6.3587264999999995,-0.9718209999999999,-1.6796640999999999,0.32183390000000006
51523,14:24:01.184000,4.034056700000001,-3.3517382000000007,6.1145282,-0.9498298000000001,-1.7175379000000002,0.34871199999999997
51524,14:24:01.192000,4.2806487,-3.2224569,6.0762224,-0.9266169,-1.7236464,0.362151
51525,14:24:01.202000,4.5104818,-2.9423472999999998,6.1504392999999995,-0.8410958000000001,-1.6747773000000001,0.3401599
51526,14:24:01.211000,4.5990634,-2.7436373,6.0810108,-0.8410958000000001,-1.6747773000000001,0.3401599
51527,14:24:01.221000,4.675674900000001,-2.9112239,5.9086356,-0.8068874,-1.6283514,0.3438251
51528,14:24:01.230000,4.7427095999999995,-3.2104863999999997,5.7410488,-0.8068874,-1.6283514,0.3438251
51529,14:24:01.239000,4.8265028,-3.8760457,5.499245200000001,-0.8398741,-1.6210209999999998,0.36703790000000003
51530,14:24:01.251000,4.8839616999999995,-4.4841470999999995,5.2382879,-0.9559385,-1.5953648,0.45744589999999996
51531,14:24:01.259000,5.022819,-5.168858999999999,5.0587306,-0.9559385,-1.5953648,0.45744589999999996
51532,14:24:01.268000,5.1521006,-5.5231862000000005,4.9055085,-1.0341291,-1.5758171,0.5221975
51533,14:24:01.278000,5.726684099999999,-5.987640900000001,4.7163744,-1.0341291,-1.5758171,0.5221975
51534,14:24:01.289000,5.8942709,-5.8607535,4.5416055,-1.0194684,-1.5782607,0.5307497
51535,14:24:01.300000,6.574194900000001,-5.8368125,4.4506296999999995,-0.9657123,-1.5574913000000001,0.5417451999999999
51536,14:24:01.308000,7.0003443,-5.6524668,4.3620481,-0.8423176,-1.5306132,0.596723
51537,14:24:01.319000,7.1918726,-5.480092,4.0005388,-0.8117744,-1.4768572,0.6565878
51538,14:24:01.336000,7.7688502999999995,-5.5064268,3.5552367999999994,-0.8484261999999999,-1.3326931,0.7469956999999999
51539,14:24:01.345000,7.8023682,-5.5064268,3.299068,-0.8484261999999999,-1.3326931,0.7469956999999999
51540,14:24:01.355000,8.1112061,-5.4369984,3.0045941000000003,-0.9840382,-1.1506553,0.7567696
51541,14:24:01.365000,8.0944481,-5.4010868,2.9064360000000002,-1.075668,-1.0468082,0.7335567
51542,14:24:01.374000,8.137541800000001,-5.5614915,2.7651839,-1.075668,-1.0468082,0.7335567
51543,14:24:01.385000,7.730544999999999,-5.640496700000001,2.6335083999999997,-1.1844019,-0.9344091999999998,0.6956831
51544,14:24:01.395000,7.395371000000001,-5.9253945,2.5425327,-1.2980227,-0.8207884,0.660253
51545,14:24:01.405000,6.8950043,-6.1743803,2.3725517000000003,-1.3786569,-0.7316020999999999,0.6455922
51546,14:24:01.414000,6.370697,-6.3204203,2.0972304,-1.4128653,-0.6680722,0.6321532
51547,14:24:01.424000,6.136075,-6.4209727999999995,1.8362738,-1.4128653,-0.6167595,0.6223794
51548,14:24:01.433000,5.9565177,-6.459278599999999,1.3263308,-1.3786569,-0.587438,0.6113838
51549,14:24:01.444000,5.726684099999999,-6.4425197,0.8642696,-1.3322312,-0.5776642,0.6003881999999999
51550,14:24:01.453000,5.729078299999999,-6.5670128,0.5219135,-1.2711446000000002,-0.5739989999999999,0.615049
51551,14:24:01.462000,5.4944562999999995,-6.5598307,0.16758689999999998,-1.2198319,-0.5703338000000001,0.6333749
51552,14:24:01.472000,5.3699636,-6.9021864,-0.193922,-1.1892886999999999,-0.5520079000000001,0.6517009
51553,14:24:01.484000,5.317293599999999,-7.3331246,-0.4548787,-1.2296058,-0.4762607,0.673692
51554,14:24:01.492000,5.2215295,-7.7496977,-0.5290958,-1.2296058,-0.4762607,0.673692
51555,14:24:01.502000,5.2287116,-8.300340700000001,-0.7014709,-1.3151268999999999,-0.3882961,0.6859093
51556,14:24:01.511000,5.3699636,-9.212492,-0.7661116,-1.3151268999999999,-0.3882961,0.6859093
51557,14:24:01.532000,5.6500731,-10.095913900000001,-0.7445647,-1.4092001,-0.3064403,0.6174924
51558,14:24:01.534000,6.0498877,-11.333663,-0.9672159,-1.4092001,-0.3064403,0.6174924
51559,14:24:01.541000,6.239021299999999,-12.327214199999998,-1.2329608,-1.2858053,-0.1964846,0.4855457
51560,14:24:01.550000,6.4497018,-13.0262909,-1.5178586,-1.0915504999999999,-0.1146287,0.40246809999999994
51561,14:24:01.560000,6.4425197,-12.9233446,-1.7692389,-0.8117744,-0.0058948,0.2986211
51562,14:24:01.568000,6.119316599999999,-12.3703079,-1.7500861,-0.8117744,-0.0058948,0.2986211
51563,14:24:01.578000,5.688378299999999,-11.345634500000001,-1.721357,-0.5136724,0.0832914,0.2094348
51564,14:24:01.588000,5.4346042,-10.285047500000001,-1.6399577,-0.25955259999999997,0.16636900000000002,0.12269200000000001
51565,14:24:01.600000,5.310111,-9.4566898,-1.3478776000000001,0.031219,0.2897637,-0.0031460999999999998
51566,14:24:01.608000,5.080277400000001,-9.0209637,-1.1156501,0.031219,0.2897637,-0.0031460999999999998
51567,14:24:01.618000,4.9773316,-8.8773184,-0.8882107,0.08497510000000001,0.3789499,-0.0116982
51568,14:24:01.628000,4.9150844000000005,-9.0856047,-0.6440126,0.1130748,0.46569279999999996,-0.0019244
51569,14:24:01.637000,4.9605727,-9.3441668,-0.3902381,0.14728329999999998,0.5316662,0.0017408
51570,14:24:01.649000,5.039578,-9.5404844,-0.30165640000000005,0.297556,0.6245175999999999,-0.058123900000000006
51571,14:24:01.657000,5.1592832,-9.648218199999999,-0.193922,0.297556,0.6245175999999999,-0.058123900000000006
51572,14:24:01.666000,5.350810500000001,-9.813410800000002,-0.1987102,0.5602278,0.6941562,-0.1729665
51573,14:24:01.676000,5.5375504,-9.8780508,-0.0502761,0.5602278,0.6941562,-0.1729665
51574,14:24:01.686000,5.5710678,-9.9067812,-0.014364600000000002,0.7153875,0.7246994000000001,-0.23771810000000002
51575,14:24:01.698000,5.5782499,-9.8756571,0.0622466,1.0122677,0.8175508,-0.3476738
51576,14:24:01.706000,5.6620436,-9.8253813,0.1484341,1.0122677,0.8175508,-0.3476738
51577,14:24:01.715000,5.5710678,-9.7607412,0.30165640000000005,1.1539883999999998,0.8590897,-0.40998199999999996
51578,14:24:01.725000,5.4537568,-9.5811834,0.4189673,1.2847133999999998,0.9030719000000001,-0.47106850000000006
51579,14:24:01.734000,5.3484163,-9.3489561,0.6224656999999999,1.5070682,0.9812626,-0.6079022
51580,14:24:01.747000,5.1616769,-8.8677416,0.8115995,1.5070682,0.9812626,-0.6079022
51581,14:24:01.753000,5.1090064,-8.6426964,0.9432749,1.5864805,1.0215796999999998,-0.6824276999999999
51582,14:24:01.766000,4.941420099999999,-8.3745575,1.1012853,1.6683363999999998,1.0667837,-0.8449177
51583,14:24:01.773000,4.9366317,-8.1447239,1.2329608,1.6683363999999998,1.0667837,-0.8449177
51584,14:24:01.783000,4.771439099999999,-7.8598261,1.3526658,1.6927709999999998,1.0704489,-0.9499865
51585,14:24:01.793000,4.5966697,-7.517469900000001,1.5178586,1.6927709999999998,1.0704489,-0.9499865
51586,14:24:01.802000,4.9079027,-7.570139900000001,1.8482443,1.6707797999999998,1.0533445,-0.9512082000000001
51587,14:24:01.813000,5.1568885,-7.8215202999999995,2.2408764,1.5718198,1.0081406,-0.9377690999999999
51588,14:24:01.821000,5.0587306,-7.9651666,2.5114095,1.5718198,1.0081406,-0.9377690999999999
51589,14:24:01.832000,4.9773316,-8.0657187,2.8944654,1.6561191000000002,1.0435708000000001,-0.8534698000000001
51590,14:24:01.841000,4.9342375,-7.941225500000001,3.4068023999999997,1.6561191000000002,1.0435708000000001,-0.8534698000000001
51591,14:24:01.850000,4.9031138,-7.8071561,3.809011,1.7721833999999999,1.0545664,-0.8021571999999999
51592,14:24:01.864000,4.869597,-7.735333,4.065179799999999,1.9982034,1.0362403,-0.7923833
51593,14:24:01.870000,4.7977738,-7.4408588,4.1968551,1.9982034,1.0362403,-0.7923833
51594,14:24:01.880000,4.5966697,-7.0506210000000005,4.177702399999999,2.2840881,1.0252447,-0.8278135
51595,14:24:01.889000,4.4745703,-6.5071607,4.026874100000001,2.2840881,1.0252447,-0.8278135
51596,14:24:01.900000,4.4937234,-5.8056893,4.0364504,2.4319172000000004,1.0081406,-0.870574
51597,14:24:01.918000,4.5009055,-4.388382900000001,4.3452892,2.5675292,0.9812626,-0.9255518
51598,14:24:01.930000,4.3069835,-3.7132473,4.5870929,2.7862188999999997,0.9690451999999999,-1.0660506
51599,14:24:01.938000,4.2998012999999995,-3.3541322,4.8959322,2.7862188999999997,0.9690451999999999,-1.0660506
51600,14:24:01.948000,4.2830424,-2.8561597,5.4250278,2.8204272,0.9910363999999999,-1.1100329
51601,14:24:01.957000,4.137002900000001,-2.6071734,5.5782499,2.8204272,0.9910363999999999,-1.1100329
51602,14:24:01.967000,4.0891209,-2.52338,5.6716199000000005,2.8143187000000003,1.0044754,-1.1075895
51603,14:24:01.979000,4.2495255,-2.4204338,5.6835904,2.7996578,0.9934799000000001,-1.1430197
51604,14:24:01.986000,4.318954,-2.4012811000000003,5.6907725,2.7996578,0.9934799000000001,-1.1430197
51605,14:24:01.998000,4.455418099999999,-2.5114095,5.7051377,2.8387532,1.0081406,-1.2187668
51606,14:24:02.006000,4.6373695999999995,-2.4300102999999997,5.602191,2.8387532,1.0081406,-1.2187668
51607,14:24:02.015000,4.8624144,-2.2552409,5.508821,2.8912876,1.0191362,-1.2822968000000001
51608,14:24:02.025000,5.0204248,-2.0206193999999997,5.48488,2.9584827000000002,1.0374622,-1.3556006
51609,14:24:02.034000,5.14013,-1.9033084999999998,5.602191,3.0244560000000003,1.0704489,-1.4350128999999998
51610,14:24:02.049000,5.0683069000000005,-1.6375635,5.8200541,3.1050901,1.1962868999999998,-1.5461904
51611,14:24:02.054000,5.142523799999999,-1.3167541999999999,6.696293799999999,3.1050901,1.1962868999999998,-1.5461904
51612,14:24:02.063000,5.2765937,-0.8499051,7.804761900000001,3.119751,1.2671473,-1.5535207
51613,14:24:02.076000,6.1288929,-0.5841601,9.5859709,3.0721035,1.340451,-1.5058733
51614,14:24:02.083000,7.2014489,-0.6248598000000001,11.9417648,2.9230525000000003,1.3966506,-1.389809
51615,14:24:02.094000,6.6891122,0.1891338,15.303078699999999,2.288975,1.7497303,-0.8388091000000001
51616,14:24:02.102000,5.1042185,0.8163876999999999,17.771396600000003,2.288975,1.7497303,-0.8388091000000001
51617,14:24:02.111000,3.0524758999999997,0.6607713000000001,17.771396600000003,1.9102389,2.0087371,-0.5052769
51618,14:24:02.121000,4.529635,0.2394099,17.019647600000003,1.7550792000000002,1.9781938000000001,-0.3757736
51619,14:24:02.130000,6.0977697,1.6902337,16.239172,2.1839063,1.3771029,-0.6714321
51620,14:24:02.144000,4.3021955,4.455418099999999,13.567357999999999,3.8515669999999997,0.39971940000000006,-1.3824786
51621,14:24:02.151000,2.2983347999999997,6.9165516,10.7279558,3.8515669999999997,0.39971940000000006,-1.3824786
51622,14:24:02.162000,0.9480630999999999,7.766456599999999,8.410469099999998,4.4343319,0.3557371,-1.4521171999999998
51623,14:24:02.170000,0.1436459,8.321887,7.0530152,4.667682599999999,0.256777,-1.6231593
51624,14:24:02.179000,-0.5650073,7.2062368,5.0252137,4.5076361,0.1883602,-1.7343366000000002
51625,14:24:02.192000,-0.45248469999999996,6.3587264999999995,3.9406865,3.4264050000000004,0.1761429,-1.6805806
51626,14:24:02.199000,-0.8307523000000001,6.3587264999999995,3.3277972,3.0525558,0.225012,-1.4838822
51627,14:24:02.211000,-1.7883917,5.9373651,2.3988869,2.6127333999999998,0.39483240000000003,-1.2444232
51628,14:24:02.219000,-2.2743938,6.2055039,1.9679491999999998,2.6127333999999998,0.39483240000000003,-1.2444232
51629,14:24:02.229000,-2.0421662,7.929255,2.5377447999999996,1.9261214,0.5842005,-0.9927469000000001
51630,14:24:02.238000,-1.1611378,10.481364300000001,3.9933567,1.9261214,0.5842005,-0.9927469000000001
51631,14:24:02.248000,-0.2537745,12.5259247,5.7314725,1.6610060000000002,0.5670963000000001,-0.9023389999999999
51632,14:24:02.260000,-0.1101285,13.339918099999998,6.581377499999999,1.0098243,0.6281828,-0.6885363
51633,14:24:02.267000,-0.2465922,14.1012421,7.237360499999999,1.0098243,0.6281828,-0.6885363
51634,14:24:02.280000,-0.24419810000000003,14.5058441,7.498317699999999,0.46493290000000004,0.4461451,-0.21450529999999998
51635,14:24:02.287000,0.1867397,13.5960875,7.1799021,0.46493290000000004,0.4461451,-0.21450529999999998
51636,14:24:02.296000,0.44530240000000004,11.9872522,6.2246566,0.19615239999999998,0.2555553,0.054275199999999996
51637,14:24:02.306000,1.1324087,10.1557674,5.403481,-0.136158,0.0820697,0.2827386
51638,14:24:02.315000,1.7189629000000002,8.7193079,5.427422,-0.47091179999999994,-0.0914159,0.4122419
51639,14:24:02.328000,2.1929946,7.572534599999999,5.9948235,-1.043903,-0.2514624,0.3865856
51640,14:24:02.335000,2.1259596000000003,6.9213395,6.0690403,-1.043903,-0.2514624,0.3865856
51641,14:24:02.345000,2.7101197,6.253386,6.428154900000001,-1.5167123,-0.26245799999999997,0.19843929999999999
51642,14:24:02.354000,2.7077258,6.1049519,6.8926105,-1.5167123,-0.26245799999999997,0.19843929999999999
51643,14:24:02.364000,2.4012811000000003,6.2246566,7.2613015,-1.5912378,-0.2453538,0.10803130000000001
51644,14:24:02.375000,2.1235654,6.8830342,7.701815600000001,-1.5912378,-0.2453538,0.10803130000000001
51645,14:24:02.392000,2.1092009999999997,8.520597500000001,8.3338575,-1.5008298,-0.217254,0.1495701
51646,14:24:02.402000,2.667026,9.8780508,8.3554049,-1.3346746,-0.2429103,0.3071732
51647,14:24:02.412000,3.3182209000000005,11.2642345,8.5014448,-1.6046767,-0.4469391,0.5625146
51648,14:24:02.424000,3.8233757000000006,12.1596279,8.573267900000001,-1.6046767,-0.4469391,0.5625146
51649,14:24:02.432000,4.1657319,12.45889,8.676214199999999,-2.0200648,-0.5691121,0.7531044
51650,14:24:02.446000,7.0314679,11.0080662,9.3992319,-3.3847365,-0.7303804,1.2992176000000002
51651,14:24:02.451000,4.220796099999999,11.9106407,8.3458281,-4.1373215,-0.5263515999999999,1.6632929
51652,14:24:02.460000,3.6653652,10.857237800000002,8.4703207,-4.1373215,-0.5263515999999999,1.6632929
51653,14:24:02.470000,3.6342421000000003,9.6099119,8.0944481,-5.3529425,-0.5911031999999999,1.9784992
51654,14:24:02.479000,2.1690536,8.3745575,6.904581100000001,-5.3529425,-0.5911031999999999,1.9784992
51655,14:24:02.488000,0.775688,6.4736428,5.3292642,-6.5832238,-0.7462628000000001,2.2619402
51656,14:24:02.499000,-0.28968590000000005,4.634975,4.1034851,-6.5832238,-0.7462628000000001,2.2619402
51657,14:24:02.509000,-0.8331464,3.0788109,3.416379,-7.4469867,-0.9478482,2.3474615
51658,14:24:02.519000,-0.7708998,1.3383013000000001,2.9471354,-7.4469867,-0.9478482,2.3474615
51659,14:24:02.528000,-0.13406949999999998,0.045487900000000005,3.2799153,-7.6265812,-1.0309258,2.4122131
51660,14:24:02.539000,0.9289103000000001,-1.6854455000000002,3.126693,-7.7621927,-1.1579857,2.4904037
51661,14:24:02.548000,1.5178586,-5.365175700000001,0.9576395000000001,-8.0089827,-1.3107018,2.5588205000000004
51662,14:24:02.558000,1.4963118,-10.5531874,-1.6136225,-8.9118404,-1.2972629,2.2448361
51663,14:24:02.567000,1.2688723999999998,-16.5527992,-3.3038561,-8.9118404,-1.2972629,2.2448361
51664,14:24:02.576000,2.039772,-21.9610672,-3.0165646,-8.9374962,-1.1421032,2.110446
51665,14:24:02.590000,3.6677592000000003,-25.3247757,-2.4563452999999997,-8.2093458,-1.0016043,1.9186343999999997
51666,14:24:02.596000,4.3812003,-25.3487186,-0.9911568999999999,-6.7664833,-0.9588438,1.6681799
51667,14:24:02.611000,3.8640754,-21.6809578,0.22025709999999998,-2.8838274,-0.7853581999999999,1.4629292
51668,14:24:02.616000,2.6526616,-17.3284855,0.8690578999999999,-2.8838274,-0.7853581999999999,1.4629292
51669,14:24:02.626000,1.6303812,-14.7069492,0.9720040999999999,-0.3047566,-0.3357618,1.3676343999999998
51670,14:24:02.635000,2.056531,-12.8347626,1.0988913999999999,-0.3047566,-0.3357618,1.3676343999999998
51671,14:24:02.645000,2.0254076000000003,-11.0248251,2.3821282000000004,0.2767866,-0.09630280000000001,0.9290335
51672,14:24:02.658000,2.2097533,-10.4741821,3.8209815000000003,0.207148,-0.0156687,0.7885346
51673,14:24:02.665000,1.5346173,-9.650611900000001,5.164071099999999,0.207148,-0.0156687,0.7885346
51674,14:24:02.674000,1.9847078000000002,-8.1806355,6.4808254000000005,0.14972670000000002,0.0197615,0.6895745
51675,14:24:02.684000,2.2672114,-7.165537400000001,7.448041,0.2010394,-0.0572075,0.5808406
51676,14:24:02.693000,2.7340607999999995,-6.8519106,7.8023682,0.0776447,-0.23435820000000004,0.49898469999999995
51677,14:24:02.706000,2.956712,-6.9285220999999995,7.3403072,-0.20335309999999998,-0.3956265,0.43423310000000004
51678,14:24:02.713000,3.4618669,-6.990768400000001,6.2078981,-0.5075637,-0.5458993000000001,0.3438251
51679,14:24:02.724000,4.0316625,-7.232572599999999,4.7834096,-0.7103708000000001,-0.7132761,0.23142600000000002
51680,14:24:02.732000,4.7139807000000005,-7.062591599999999,4.1920671,-0.8264351000000001,-0.8635489,0.13490929999999998
51681,14:24:02.742000,5.065913200000001,-7.646751400000001,4.1753082,-0.8557565999999999,-0.9331875,0.054275199999999996
51682,14:24:02.751000,5.0563364,-7.560564,3.9957507000000003,-0.7946701,-0.9380744000000001,-0.055680499999999994
51683,14:24:02.761000,5.0683069000000005,-7.4815583,4.2686782,-0.6993753,-0.8940921000000001,-0.1644144
51684,14:24:02.773000,4.7211623,-7.4624062,4.2160082,-0.4953464,-0.7975755,-0.1460884
51685,14:24:02.781000,4.4961176,-7.486347200000001,4.7067981,-0.4953464,-0.7975755,-0.1460884
51686,14:24:02.792000,3.7347938999999997,-7.3259419999999995,5.082671599999999,-0.2619961,-0.7010589,-0.009254700000000001
51687,14:24:02.800000,3.1458457,-6.8423338000000005,5.5614915,-0.2619961,-0.7010589,-0.009254700000000001
51688,14:24:02.810000,2.8944654,-6.686717999999999,5.5016389000000006,-0.14715350000000002,-0.6802894,0.07870980000000001
51689,14:24:02.823000,2.3390346,-6.4209727999999995,5.4417862999999995,-0.136158,-0.7865799,0.2363129
51690,14:24:02.829000,2.4874685000000003,-6.3970318,5.6141615,-0.136158,-0.7865799,0.2363129
51691,14:24:02.840000,2.7915192,-6.4712491,5.5423384,-0.17158810000000002,-0.9832784,0.1886654
51692,14:24:02.849000,3.2679447999999995,-6.7226295,5.1904058,-0.17158810000000002,-0.9832784,0.1886654
51693,14:24:02.858000,3.7659172999999995,-6.813604799999999,4.821714900000001,-0.20457479999999997,-1.0272607,0.1251355
51694,14:24:02.868000,4.0819383,-6.9596448,4.1609435,-0.24122670000000002,-1.0785732,0.1153617
51695,14:24:02.877000,4.295013,-7.3929772,3.7252178,-0.2558874,-1.0907905,0.0921488
51696,14:24:02.889000,4.242342900000001,-7.8430675999999995,3.2918858999999996,-0.312087,-1.0162652,0.1190268
51697,14:24:02.897000,4.4290824,-8.2285175,3.1506341,-0.312087,-1.0162652,0.1190268
51698,14:24:02.907000,4.3812003,-8.3506165,3.1745751,-0.27910029999999997,-0.9063094,0.15079179999999998
51699,14:24:02.917000,4.3859892,-8.216547,3.5241132000000004,-0.27910029999999997,-0.9063094,0.15079179999999998
51700,14:24:02.926000,4.3955655,-7.9124966,3.7970405,-0.1349362,-0.8403360000000001,0.2228739
51701,14:24:02.939000,4.4673886,-7.5821104,4.0220861,-0.0689628,-0.8549968000000001,0.2570823
51702,14:24:02.945000,4.409930200000001,-7.3450952,3.9406865,-0.0689628,-0.8549968000000001,0.2570823
51703,14:24:02.955000,4.318954,-6.875851600000001,3.5983305,0.03854930000000001,-0.9111964,0.3426034
51704,14:24:02.965000,4.3452892,-6.7226295,3.5767834,0.03854930000000001,-0.9111964,0.3426034
51705,14:24:02.974000,4.3333187,-5.7075315,3.246398,0.0703143,-0.9417396,0.4305679
51706,14:24:02.984000,5.144918,-4.9294496,4.4219003,0.071536,-1.0162652,0.5527408
51707,14:24:02.994000,4.8552327,-5.8846945999999996,2.5616858,-0.0384196,-1.1005645,0.5405234999999999
51708,14:24:03.004000,4.6684923,-5.6428905,2.1115949,-0.32308259999999994,-0.9612873,0.4782153
51709,14:24:03.013000,4.7067981,-5.738654599999999,1.575317,-0.32308259999999994,-0.9612873,0.4782153
51710,14:24:03.032000,4.6972213,-6.0427051,0.7445647,-0.44769899999999996,-0.9185267,0.5087585
51711,14:24:03.042000,4.8480501,-6.286903400000001,0.6775299,-0.7445792,-0.813458,0.5930579
51712,14:24:03.051000,4.5918813,-6.909369,0.35432659999999994,-0.9095128,-0.7364890000000001,0.6480357
51713,14:24:03.062000,4.5870929,-7.3642473,0.09097569999999999,-1.1318675,-0.6143161,0.6846876000000001
51714,14:24:03.071000,4.5990634,-8.348222699999999,0.2250453,-1.2943575,-0.5141342999999999,0.6907962
51715,14:24:03.081000,4.4458413,-9.049693099999999,-0.3806617,-1.4226391,-0.43227840000000006,0.6700268
51716,14:24:03.091000,3.9765980000000005,-9.794258099999999,-0.6942885999999999,-1.4947211999999999,-0.27467529999999996,0.5820623
51717,14:24:03.103000,3.4355318999999995,-11.1014357,-0.9121516,-1.4067566,-0.2380234,0.5295279
51718,14:24:03.109000,3.3732852999999996,-13.0622034,-1.8290915,-1.4067566,-0.2380234,0.5295279
51719,14:24:03.120000,3.9646275,-13.545810699999999,-0.6871063000000001,-1.3065748,-0.21114539999999998,0.42812440000000007
51720,14:24:03.129000,4.0747561,-14.4675388,-3.7754939,-1.1110981000000002,-0.1964846,0.2228739
51721,14:24:03.140000,5.331657900000001,-16.069191,-3.7994347,-0.8582001,-0.0901942,-0.1326494
51722,14:24:03.149000,4.7738328,-10.794990499999999,-1.4651883999999997,-0.5943065,-0.052320500000000006,-0.2279443
51723,14:24:03.158000,3.6198773,-10.483758,-1.1826848,-0.0543021,0.11872160000000001,0.1483484
51724,14:24:03.171000,4.1920671,-10.797385199999999,-0.5913424,-0.000546,0.2017992,-0.0068113
51725,14:24:03.178000,3.7108531000000005,-10.2491369,0.1963161,-0.000546,0.2017992,-0.0068113
51726,14:24:03.188000,3.2942801,-9.820592900000001,0.5243076,0.0177799,0.22379029999999997,0.0493883
51727,14:24:03.197000,3.3637087,-9.854109800000002,0.7732939,0.0837533,0.24822489999999997,0.1336876
51728,14:24:03.207000,3.4283495000000004,-9.5787888,0.6918946,0.10818789999999999,0.2213469,0.15079179999999998
51729,14:24:03.219000,3.3325856,-9.5380888,0.3902381,0.1411746,0.16759079999999998,0.16300910000000002
51730,14:24:03.226000,3.4666550000000003,-9.715252900000001,0.059852499999999996,0.1411746,0.16759079999999998,0.16300910000000002
51731,14:24:03.237000,3.4546845,-9.7391939,-0.11252260000000001,0.2999994,0.1346041,0.15079179999999998
51732,14:24:03.246000,3.4642611000000003,-9.787075999999999,-0.0526702,0.2999994,0.1346041,0.15079179999999998
51733,14:24:03.255000,3.4738371,-9.9115686,-0.2944742,0.5956579000000001,0.1504866,0.11658339999999999
51734,14:24:03.268000,3.7012767999999996,-9.9043875,-0.11252260000000001,0.7459307,0.1504866,0.0982574
51735,14:24:03.274000,3.8688636,-10.016908599999999,0.5554309000000001,0.7459307,0.1504866,0.0982574
51736,14:24:03.286000,3.8042231,-9.846927599999999,0.047882,1.0367023000000002,0.2103513,0.095814
51737,14:24:03.294000,4.1058793,-10.0097265,0.6535890000000001,1.0367023000000002,0.2103513,0.095814
51738,14:24:03.304000,4.0843324999999995,-9.4135962,0.48839620000000006,1.0916801999999999,0.26777259999999997,0.1214703
51739,14:24:03.314000,4.3213482,-10.0815496,-1.4005477,1.128332,0.3447415,0.15934389999999998
51740,14:24:03.324000,3.8544991000000004,-9.7487698,0.3184151,1.0929018,0.48279700000000003,0.2045479
51741,14:24:03.336000,3.9478687999999993,-10.0336676,0.2944742,0.9133077,0.8835242,0.2363129
51742,14:24:03.343000,4.0077214,-10.5675516,0.40220859999999997,0.9133077,0.8835242,0.2363129
51743,14:24:03.353000,3.8568931000000006,-11.269022900000001,0.038305599999999995,0.7422655,1.1303136,-0.06789780000000001
51744,14:24:03.362000,3.5312957999999997,-11.5587091,-0.316021,0.7422655,1.1303136,-0.06789780000000001
51745,14:24:03.372000,2.9495296000000004,-11.448579800000001,-0.2537745,0.8949816999999999,1.2879167,-0.40509509999999993
51746,14:24:03.383000,2.5497153,-10.9865189,-0.1604046,0.8949816999999999,1.2879167,-0.40509509999999993
51747,14:24:03.390000,2.4898627,-10.4693937,-0.007182300000000001,1.1185582,1.245156,-0.4991682
51748,14:24:03.402000,2.2743938,-9.9307222,0.3902381,1.5229506000000002,1.1205397,-0.6873146
51749,14:24:03.410000,1.9200671999999999,-8.9060469,0.7397765000000001,1.5229506000000002,1.1205397,-0.6873146
51750,14:24:03.420000,2.0972304,-7.9244671,1.3406953000000001,1.6671146000000001,1.0985486999999998,-0.7129709
51751,14:24:03.429000,2.3821282000000004,-7.2158136,1.9392200000000002,1.7453053,1.0594531999999999,-0.7178578
51752,14:24:03.440000,2.5616858,-6.8519106,2.5473211,1.5815936000000002,0.9653801,-0.7325186
51753,14:24:03.450000,2.8346131000000003,-7.0649853,2.9758646,1.4032211,0.9482759,-0.7190795999999999
51754,14:24:03.459000,3.2942801,-7.5964756,3.3158267,1.4032211,0.9482759,-0.7190795999999999
51755,14:24:03.469000,3.4977782,-8.4200449,3.4522904999999997,1.0867931999999998,0.9678235999999999,-0.6995319000000001
51756,14:24:03.478000,3.7060647000000007,-9.3250151,3.7228234,1.0867931999999998,0.9678235999999999,-0.6995319000000001
51757,14:24:03.487000,3.6917002,-9.901991800000001,3.952657,1.0342588,1.0056973,-0.6983102
51758,14:24:03.501000,3.6126949999999995,-9.897204400000001,4.476964499999999,1.2602788,1.1034355,-0.7459576
51759,14:24:03.507000,3.3732852999999996,-10.028880099999999,4.6780691,1.2602788,1.1034355,-0.7459576
51760,14:24:03.521000,3.1769691000000004,-9.631459199999998,4.974937000000001,1.6903275000000002,1.1217616000000001,-0.8131527
51761,14:24:03.535000,3.1338751,-8.0896597,5.422633599999999,1.6903275000000002,1.1217616000000001,-0.8131527
51762,14:24:03.544000,3.1865456,-7.668298700000001,5.626132,2.1387023999999997,1.0276882999999999,-0.8595784
51763,14:24:03.554000,2.9495296000000004,-7.388188400000001,6.059464,2.2718708999999997,1.0240231,-0.9157780000000001
51764,14:24:03.566000,2.983047,-7.3834004,6.4712491,2.4306955,1.0264666,-1.0562768
51765,14:24:03.574000,2.9543178,-7.601263499999999,6.4401255,2.4306955,1.0264666,-1.0562768
51766,14:24:03.586000,2.2408764,-7.1224441999999994,6.3323908,2.6652677000000002,1.1242048999999998,-1.1246936
51767,14:24:03.594000,2.2121472,-6.7609348,6.191139700000001,2.6652677000000002,1.1242048999999998,-1.1246936
51768,14:24:03.604000,2.4276164000000002,-6.514342299999999,6.0546755999999995,2.8399749,1.1119876,-1.1698977
51769,14:24:03.616000,2.4036752999999997,-6.4473081,5.6716199000000005,3.0256779,1.0460143,-1.3409398000000001
51770,14:24:03.623000,2.5425327,-6.6891122,5.8655419,3.0256779,1.0460143,-1.3409398000000001
51771,14:24:03.634000,2.9471354,-5.539944599999999,5.6811967,3.1283031,1.0680053,-1.4728866000000003
51772,14:24:03.643000,3.0189586,-6.2366271,5.8463888,3.1283031,1.0680053,-1.4728866000000003
51773,14:24:03.652000,3.1290869999999997,-6.346756,5.164071099999999,3.1832808999999997,0.9898146999999999,-1.7025717
51774,14:24:03.662000,3.153028,-6.0283403,5.5375504,3.2932365,1.1706306999999998,-1.8003099999999999
51775,14:24:03.672000,2.9638944,-5.6524668,5.362781,3.6573119,1.3673291,-2.0422125
51776,14:24:03.682000,2.3557932,-5.046760099999999,5.2382879,3.8198019999999997,1.4723978000000002,-2.1094077
51777,14:24:03.690000,1.9440081000000002,-4.9653611,4.9557843,3.8198019999999997,1.4723978000000002,-2.1094077
51778,14:24:03.701000,2.0876541,-4.8552327,4.6206107,4.0543742,1.4809499,-2.1766028
51779,14:24:03.711000,2.6574495,-4.6589160000000005,4.582305,4.0543742,1.4809499,-2.1766028
51780,14:24:03.720000,1.9272496,-4.0388446,4.1489735,4.1912079,1.4308591,-2.1717157000000005
51781,14:24:03.733000,2.130748,-2.9710765,4.4242945,4.5503964,1.561584,-2.2279153
51782,14:24:03.739000,2.6646321,-2.1092009999999997,4.6780691,4.5503964,1.561584,-2.2279153
51783,14:24:03.749000,3.3637087,-0.6631654,6.0977697,4.6261434999999995,1.5090497,-2.2609022000000003
51784,14:24:03.759000,3.1865456,1.7093865000000001,9.293891,4.518631500000001,1.4284155,-2.1814897
51785,14:24:03.768000,2.2696054,4.7211623,13.8354969,4.2412987,1.412533,-1.9896781000000003
51786,14:24:03.782000,1.0486152,6.2964797,17.290182100000003,3.1405203,1.8059299,-1.642707
51787,14:24:03.789000,-0.6775299,6.6364417,19.942842499999998,3.1405203,1.8059299,-1.642707
51788,14:24:03.801000,-2.1882062,6.3156323,19.3371353,2.9230525000000003,2.0600495,-1.281075
51789,14:24:03.808000,-1.7333275000000001,5.9804587,17.0866814,2.9230525000000003,2.0600495,-1.281075
51790,14:24:03.817000,-0.1867397,5.4346042,13.6583328,3.5351391000000003,1.7619476000000003,-1.091707
51791,14:24:03.830000,1.065374,5.9373651,10.6465569,4.0592608,1.2695906000000001,-0.8473610999999999
51792,14:24:03.837000,0.36390300000000003,5.3986925999999995,8.1136007,4.3659153,0.9299499,-0.6750973000000001
51793,14:24:03.848000,-1.4220946,5.7075315,5.9828529,4.5870481,0.8774155999999999,-0.7459576
51794,14:24:03.856000,-2.0900483,6.6771417,5.125765299999999,4.5870481,0.8774155999999999,-0.7459576
51795,14:24:03.866000,-1.8937321,7.3235478,4.2591014000000005,3.8356845,0.3422981,-1.0074077
51796,14:24:03.875000,-1.3790008999999999,6.997950599999999,2.7149078999999996,3.8356845,0.3422981,-1.0074077
51797,14:24:03.885000,-0.2298335,6.394638099999999,1.5106763,3.1893895,0.023426699999999998,-1.190667
51798,14:24:03.897000,0.5003666,7.2613015,0.9360925999999999,2.0091989,-0.41883940000000003,-1.6341549
51799,14:24:03.905000,1.9080968,8.300340700000001,0.6775299,2.0091989,-0.41883940000000003,-1.6341549
51800,14:24:03.914000,2.5257742000000003,8.008260700000001,2.2672114,1.4459816,-0.5300168000000001,-1.7502191000000002
51801,14:24:03.924000,2.3438227000000005,8.0609303,3.9933567,0.7605915,-0.3443139,-1.9298133999999998
51802,14:24:03.933000,1.6543223000000002,5.8392072,2.6502673999999997,-0.16670120000000002,0.1504866,-2.0935252
51803,14:24:03.943000,0.48600200000000005,3.3254032,2.9686825,-1.0426812,0.9629366,-2.1692723999999997
51804,14:24:03.953000,-0.775688,2.3294580000000003,5.1616769,-1.4311912,1.792491,-2.2059243
51805,14:24:03.966000,-3.0333229999999998,3.3900437000000005,6.8519106,-0.6199628,2.8993778,-1.6585895
51806,14:24:03.972000,-5.990035099999999,6.2940855,7.907708199999999,-0.6199628,2.8993778,-1.6585895
51807,14:24:03.982000,-9.0257521,10.9003325,9.3944426,1.1857532,3.5029120000000002,-0.6286716
51808,14:24:03.991000,-10.5555811,15.099580800000002,10.6154337,1.1857532,3.5029120000000002,-0.6286716
51809,14:24:04.001000,-9.0736341,16.8520622,10.1773138,1.5058464,3.0435418999999997,-0.1485319
51810,14:24:04.013000,-6.6364417,17.177658100000002,9.9833918,0.6762921,1.425972,0.11047470000000001
51811,14:24:04.021000,-5.5040331,14.240098999999999,8.7408552,0.6762921,1.425972,0.11047470000000001
51812,14:24:04.031000,-4.970149,9.6147013,6.418578599999999,-0.8655305,0.4278191,0.551519
51813,14:24:04.040000,-4.2638898,6.753752700000001,5.0850654,-0.8655305,0.4278191,0.551519
51814,14:24:04.050000,-3.4307434999999997,5.7051377,4.7067981,-1.5167123,-0.14639370000000002,0.4782153
51815,14:24:04.063000,-3.2056982999999994,4.747498,4.828897,-1.4886125,-0.2978882,0.4806588
51816,14:24:04.069000,-3.5169311000000003,4.6684923,4.9126905999999995,-1.3322312,-0.321101,0.47699359999999996
51817,14:24:04.081000,-4.3117719,5.5471268,5.5782499,-1.1465281999999999,-0.2832274,0.49531949999999997
51818,14:24:04.089000,-5.144918,6.9333100000000005,5.556703099999999,-1.1465281999999999,-0.2832274,0.49531949999999997
51819,14:24:04.099000,-5.4010868,8.803100599999999,6.1264987,-0.9412777,-0.3479791,0.5087585
51820,14:24:04.110000,-5.427422,10.067185400000001,6.289297599999999,-0.7897831999999999,-0.5177995,0.5014281
51821,14:24:04.129000,-4.8073505999999995,12.217085800000001,7.062591599999999,-1.459291,-1.1017861,0.33893809999999996
51822,14:24:04.137000,-4.9869075,13.404559099999998,7.2469368,-1.459291,-1.1017861,0.33893809999999996
51823,14:24:04.148000,-4.9366317,14.9224167,7.771244500000001,-2.6382599,-1.4157705,0.42934609999999995
51824,14:24:04.156000,-4.388382900000001,16.6174393,8.1543007,-2.6382599,-1.4157705,0.42934609999999995
51825,14:24:04.167000,-3.9358983,17.2111759,7.804761900000001,-3.464149,-1.6894381,0.47332840000000004
51826,14:24:04.178000,-3.3517382000000007,16.0955257,7.5342288,-5.6644835,-2.2893071,0.7115656
51827,14:24:04.186000,-3.636636,14.680614499999999,6.827969599999999,-5.6644835,-2.2893071,0.7115656
51828,14:24:04.196000,-3.8281641000000004,14.0677242,6.5718012,-6.8923216,-2.6057351000000004,1.0096676
51829,14:24:04.205000,-4.5176644,13.8881674,6.2438097,-8.0737343,-2.9221630000000003,1.3761865
51830,14:24:04.214000,-6.7513585,14.1395473,-0.6727418000000001,-10.2251997,-3.2361476000000002,1.7402619
51831,14:24:04.224000,-5.8200541,12.3846731,3.8233757000000006,-10.2251997,-3.2361476000000002,1.7402619
51832,14:24:04.233000,-4.5439997000000005,11.3887281,4.7379217,-10.6149311,-2.8842895,1.8587697
51833,14:24:04.245000,-4.0723619,9.0377226,2.9040418,-10.7505436,-3.0272317,1.7427053
51834,14:24:04.253000,-2.1115949,3.3756793,0.7206236999999999,-10.7505436,-3.0272317,1.7427053
51835,14:24:04.264000,-5.1616769,-1.065374,-3.978992,-11.4738073,-3.6099968000000002,2.0908983
51836,14:24:04.272000,-4.685251200000001,-4.9366317,-7.6036577,-11.4738073,-3.6099968000000002,2.0908983
51837,14:24:04.282000,-0.7349883,-13.8666201,-14.625549300000001,-10.859276800000002,-3.9154291,2.3169181
51838,14:24:04.294000,0.45727290000000004,-23.1030521,-19.693855300000003,-9.9955139,-3.8738904,1.554559
51839,14:24:04.302000,3.8880162000000005,-33.0505333,-19.9859352,-9.9955139,-3.8738904,1.554559
51840,14:24:04.314000,9.562029800000001,-34.915535,-14.673431400000002,-6.665080099999999,-3.6808568999999998,0.2949559
51841,14:24:04.321000,10.857237800000002,-32.4496155,-8.5301743,-6.665080099999999,-3.6808568999999998,0.2949559
51842,14:24:04.330000,7.914890299999999,-28.619056699999998,-4.271071900000001,-3.599761,-2.8134291,0.040836199999999996
51843,14:24:04.342000,6.1791692000000005,-23.7518539,-1.8075444999999999,-1.1379761999999998,-1.4389834,0.4501155
51844,14:24:04.349000,6.6627769,-16.6485634,-0.004788199999999999,0.6518575,-0.35042249999999997,0.9522464
51845,14:24:04.362000,6.3922434,-11.3121166,-0.6320420999999999,2.613955,0.7503557,1.5154636000000001
51846,14:24:04.370000,3.9023809000000003,-7.3594593999999995,-0.533884,2.613955,0.7503557,1.5154636000000001
51847,14:24:04.380000,2.0325898999999996,-6.2150807,1.0605857,2.1142676,1.2304955,1.5606676000000002
51848,14:24:04.389000,2.157083,-8.793524699999999,3.2152746,2.1142676,1.2304955,1.5606676000000002
51849,14:24:04.398000,0.8906046999999999,-11.151712400000001,4.7881975,1.2969306999999999,1.0924399,1.1941488
51850,14:24:04.411000,-0.8906046999999999,-12.918557199999999,6.3036617999999995,0.5064718,1.0643401000000001,0.48432390000000003
51851,14:24:04.418000,-2.353399,-13.6942453,7.7377272,0.5064718,1.0643401000000001,0.48432390000000003
51852,14:24:04.428000,-2.8154602000000004,-12.9424982,8.4391975,0.9646201999999999,0.6367348,-0.0068113
51853,14:24:04.437000,-2.5808383999999998,-10.3951769,8.4224386,0.9646201999999999,0.6367348,-0.0068113
51854,14:24:04.446000,-1.8626089,-7.0721674,8.269216499999999,1.3592389,0.2140165,-0.2633744
51855,14:24:04.460000,-1.2162021,-5.0419722,6.854304300000001,1.5864805,-0.5666686,-0.6164543
51856,14:24:04.466000,-0.5745836999999999,-4.941420099999999,5.1114011,1.5864805,-0.5666686,-0.6164543
51857,14:24:04.479000,-0.059852499999999996,-4.8911432999999995,4.0220861,0.8131258000000001,-1.0394779,-0.7862747
51858,14:24:04.486000,0.7134414000000001,-3.9885685,4.8815675,0.8131258000000001,-1.0394779,-0.7862747
51859,14:24:04.495000,1.8458501,-4.3859892,3.6605771000000003,0.011671299999999999,-1.4450922,-0.7862747
51860,14:24:04.505000,2.0182252,-4.4242945,3.7994347,0.011671299999999999,-1.4450922,-0.7862747
51861,14:24:04.514000,2.5808383999999998,-4.486540799999999,4.4290824,-0.3768387,-1.5110655000000002,-0.7936051
51862,14:24:04.526000,2.8010955,-5.0156369000000005,4.723557,-1.0011424,-1.5941432,-0.7068623
51863,14:24:04.534000,2.9016478,-6.1791692000000005,4.7690444,-1.0011424,-1.5941432,-0.7068623
51864,14:24:04.544000,2.9088298999999997,-7.167931599999999,4.606246,-1.3615526000000002,-1.5929213,-0.5932415
51865,14:24:04.553000,3.0093822,-7.682663000000001,4.4626002,-1.3615526000000002,-1.5929213,-0.5932415
51866,14:24:04.563000,3.7228234,-7.7257565999999995,4.3788066,-1.2051711999999999,-1.6320166999999999,-0.4845075
51867,14:24:04.575000,4.534422900000001,-7.706604,4.1944609,-1.070781,-1.6417906000000002,-0.4783988
51868,14:24:04.582000,4.828897,-7.5845050999999994,3.9239278,-1.070781,-1.6417906000000002,-0.4783988
51869,14:24:04.592000,4.8839616999999995,-7.3786125,3.6557887000000004,-0.7519096,-1.4621964,-0.3831039
51870,14:24:04.602000,4.8456559,-7.1942663,3.5600247000000005,-0.7519096,-1.4621964,-0.3831039
51871,14:24:04.613000,4.9988779999999995,-7.2565136,3.5672072999999997,-0.6004151,-1.3656796999999998,-0.32690440000000004
51872,14:24:04.627000,4.6804628,-8.0417776,3.3421616999999997,-0.3560692,-1.1763117,-0.1363146
51873,14:24:04.631000,5.6835904,-4.5392108,7.960378599999999,-0.23023110000000002,-1.1225555,0.1031444
51874,14:24:04.645000,5.245470500000001,-7.6994214,4.0077214,-0.28398720000000005,-1.1017861,-0.1790751
51875,14:24:04.659000,4.0244799,-7.5414109,3.6653652,-0.14715350000000002,-0.8501099,-0.08744539999999999
51876,14:24:04.668000,4.2447371,-7.5677462,3.5624189,-0.14715350000000002,-0.8501099,-0.08744539999999999
51877,14:24:04.679000,4.4147182,-7.5414109,3.2847035000000004,-0.10561469999999999,-0.8647706000000001,-0.0898889
51878,14:24:04.691000,4.5870929,-7.5414109,3.416379,-0.12271889999999999,-0.8745444,-0.0202503
51879,14:24:04.699000,5.0898538,-7.273272,3.0285349,-0.12271889999999999,-0.8745444,-0.0202503
51880,14:24:04.709000,5.3986925999999995,-7.907708199999999,1.7668449000000002,-0.2974263,-0.6570766,0.0212885
51881,14:24:04.719000,5.8942709,-8.9419594,1.8362738,-0.2974263,-0.6570766,0.0212885
51882,14:24:04.728000,6.1288929,-9.3274088,0.7613234,-0.5613198,-0.47748240000000003,-0.0483501
51883,14:24:04.740000,5.9613061,-8.7647963,2.1139894,-0.8142178000000001,-0.2930012,-0.1277625
51884,14:24:04.747000,5.2047706,-9.2795267,1.0174919,-0.8227699,-0.1378416,-0.1656361
51885,14:24:04.758000,5.1305537,-9.049693099999999,0.7182297,-0.8618653000000001,0.12849539999999998,-0.15952750000000002
51886,14:24:04.767000,5.6213441,-9.181368800000001,1.2545078,-0.8618653000000001,0.12849539999999998,-0.15952750000000002
51887,14:24:04.777000,5.8176599,-8.441592199999999,1.0366447,-0.8447610000000001,0.2799899,-0.215727
51888,14:24:04.786000,5.5710678,-8.9323816,0.11252260000000001,-0.8447610000000001,0.2799899,-0.215727
51889,14:24:04.796000,4.6086402,-8.417651199999998,-0.0526702,-0.9095128,0.4632493,-0.2218357
51890,14:24:04.807000,4.5535760000000005,-7.9172845,1.1443793,-0.8398741,0.5402182,-0.1033279
51891,14:24:04.815000,4.941420099999999,-8.4344101,0.5027608,-0.8398741,0.5402182,-0.1033279
51892,14:24:04.825000,4.781014900000001,-7.479164599999999,0.7062590999999999,-0.7506878,0.5243357,-0.0226938
51893,14:24:04.835000,5.853571400000001,-7.5198641,0.9696100000000001,-0.7506878,0.5243357,-0.0226938
51894,14:24:04.844000,5.4202394,-8.3697691,-0.023941,-0.6663885,0.5988613,0.0176233
51895,14:24:04.857000,4.9916959,-8.4559574,0.32320340000000003,-0.5478808000000001,1.0692270000000001,-0.1155452
51896,14:24:04.864000,4.675674900000001,-8.8007069,0.2513804,-0.5478808000000001,1.0692270000000001,-0.1155452
51897,14:24:04.875000,4.1585493,-8.963505699999999,0.48121379999999997,-0.28643070000000004,1.2304955,-0.2450485
51898,14:24:04.883000,3.6629709999999998,-8.97787,0.5386721999999999,-0.28643070000000004,1.2304955,-0.2450485
51899,14:24:04.892000,3.5193252999999998,-9.1334867,0.6440126,-0.1337145,1.1547482,-0.3049133
51900,14:24:04.905000,3.7228234,-9.076027900000001,0.9576395000000001,0.13017910000000002,0.7784555000000001,-0.2914743
51901,14:24:04.912000,4.7403154,-9.226857199999998,1.2952073999999998,0.13017910000000002,0.7784555000000001,-0.2914743
51902,14:24:04.924000,4.723557,-9.511754,1.0557975,0.2694562,0.4791318,-0.0446849
51903,14:24:04.932000,4.7905917,-9.6601877,1.0988913999999999,0.2694562,0.4791318,-0.0446849
51904,14:24:04.941000,4.7977738,-9.7798929,1.5082823,0.43683310000000003,0.3752848,0.22776079999999999
51905,14:24:04.950000,4.417111900000001,-9.6458244,1.4484297,0.43683310000000003,0.3752848,0.22776079999999999
51906,14:24:04.960000,4.0819383,-9.6961002,1.2784487,0.5296845,0.3288591,0.3193905
51907,14:24:04.972000,3.6605771000000003,-9.6625834,1.26169,0.6665183000000001,0.1492648,0.4159071
51908,14:24:04.980000,2.8417952,-9.4758434,1.139591,0.6665183000000001,0.1492648,0.4159071
51909,14:24:04.989000,2.4587395,-9.382473,0.9360925999999999,0.7276047,0.0051007,0.45133720000000005
51910,14:24:05,2.5042272,-9.246008900000001,1.2569019,0.7825826,-0.23435820000000004,0.4904326
51911,14:24:05.009000,0.7852644,-8.7600069,1.2090199,0.8644384,-0.5300168000000001,0.5221975
51912,14:24:05.026000,1.7764213,-9.415989900000001,0.9169398000000001,0.7838043,-1.4231009,0.8190778000000001
51913,14:24:05.029000,3.2200627,-10.1557674,0.9336985000000001,0.7459307,-1.9582186000000001,0.8068605
51914,14:24:05.039000,4.7020102,-9.8876276,0.5290958,0.7288265,-2.2514336,0.9791244
51915,14:24:05.049000,10.5436106,-15.0014229,0.9839745999999999,0.7288265,-2.2514336,0.9791244
51916,14:24:05.057000,6.7298117,-10.572339999999999,1.0797385,0.8363386,-2.2074513,0.7482175
51917,14:24:05.067000,7.694633500000001,-12.758152,0.6511949,0.99272,-0.7743626,0.5564060000000001
51918,14:24:05.076000,5.5830383,-11.778966,0.8331464,1.2382877,-0.17205,0.3951377
51919,14:24:05.088000,4.374018700000001,-11.4509745,0.8379346,1.5889239,0.7894511,0.0469448
51920,14:24:05.096000,4.4242945,-10.82372,0.9791864,1.5889239,0.7894511,0.0469448
51921,14:24:05.106000,4.8193212,-9.966632800000001,1.5896816,1.7501923,0.8297681,-0.0972193
51922,14:24:05.116000,4.9533906,-9.9450855,1.7429038000000001,1.8748087,0.7405819,-0.2206139
51923,14:24:05.125000,4.4506296999999995,-9.2316446,1.817121,1.9603297999999998,0.7527991999999999,-0.3073567
51924,14:24:05.136000,3.9454749,-9.3250151,1.5729228000000002,2.0776157,1.015471,-0.3232392
51925,14:24:05.145000,3.6055129,-8.961112,1.5106763,2.0776157,1.015471,-0.3232392
51926,14:24:05.164000,3.2942801,-8.5110207,2.3414285,2.1252632,1.0899966,-0.3940995
51927,14:24:05.174000,3.0093822,-8.070507000000001,2.7963072999999996,2.2779794,1.182848,-0.5101638
51928,14:24:05.186000,2.5808383999999998,-7.6898451,3.1051458999999997,2.4038174,1.2708125,-0.5578113
51929,14:24:05.193000,2.3198817000000003,-7.804761900000001,3.0165646,2.4038174,1.2708125,-0.5578113
51930,14:24:05.204000,2.3198817000000003,-7.7329387999999994,3.4355318999999995,2.5003342999999996,1.2133911,-0.6152326
51931,14:24:05.213000,2.0325898999999996,-7.4432529999999995,3.4690489999999996,2.5003342999999996,1.2133911,-0.6152326
51932,14:24:05.222000,1.8243033,-7.2014489,3.6605771000000003,2.7349062,1.1376441000000002,-0.6421106
51933,14:24:05.232000,1.8290915,-6.6627769,3.9837801,2.7349062,1.1376441000000002,-0.6421106
51934,14:24:05.241000,1.6519281000000003,-5.934970900000001,4.3093777,2.8741833999999997,1.0704489,-0.6482193
51935,14:24:05.253000,1.9320377,-5.539944599999999,4.8145323,3.0672166,0.9898146999999999,-0.6567714
51936,14:24:05.261000,1.6902337,-5.2191353,4.771439099999999,3.0672166,0.9898146999999999,-0.6567714
51937,14:24:05.271000,2.0182252,-5.1090064,5.2741995,3.151516,0.9849277,-0.6433324
51938,14:24:05.280000,2.1020187999999997,-5.030001599999999,5.451363099999999,3.151516,0.9849277,-0.6433324
51939,14:24:05.290000,2.1475065,-4.9198732000000005,5.796113,3.2003851,0.9739322,-0.6604366
51940,14:24:05.303000,1.9703432,-4.8480501,5.9828529,3.3860879,1.0252447,-0.6641017
51941,14:24:05.309000,1.9464022,-4.4745703,5.8942709,3.3860879,1.0252447,-0.6641017
51942,14:24:05.320000,2.1499007000000003,-4.237555,5.9780644999999994,3.6646422999999997,0.9898146999999999,-0.7874964
51943,14:24:05.329000,2.2432703999999997,-3.7036707000000004,5.5758562000000005,3.6646422999999997,0.9898146999999999,-0.7874964
51944,14:24:05.340000,2.5377447999999996,-3.3804674,5.5495209999999995,3.9102099000000003,0.9666018,-0.9560950999999999
51945,14:24:05.348000,2.9255888,-3.0548699,5.508821,3.9102099000000003,0.9666018,-0.9560950999999999
51946,14:24:05.357000,2.9902293999999996,-3.006988,6.310844400000001,4.022609200000001,0.9641584000000001,-1.0379509
51947,14:24:05.368000,2.6478732000000003,-2.6215382000000003,7.055409,4.1423388,1.0692270000000001,-1.1515718000000001
51948,14:24:05.377000,2.2384822,-3.1314812,6.9859800000000005,4.1423388,1.0692270000000001,-1.1515718000000001
51949,14:24:05.386000,2.7556078,-2.4276164000000002,7.9196786999999995,4.1154604,1.1339788,-1.2175452
51950,14:24:05.397000,3.2344275000000002,-1.0821326,10.3305359,4.2241945,1.1742959,-1.2187668
51951,14:24:05.406000,3.4451079,-0.1915279,12.662387800000001,4.2840595,1.2072825,-1.1308023
51952,14:24:05.418000,3.5073547,0.5123371,16.2056541,3.6915205,1.2121693999999998,-0.8217049000000001
51953,14:24:05.426000,3.6174831,1.3694245,19.181520499999998,3.6915205,1.2121693999999998,-0.8217049000000001
51954,14:24:05.435000,3.1985159,0.751747,19.3443184,3.2969017,1.2158346000000002,-0.6860929
51955,14:24:05.446000,2.956712,-0.9935510000000001,16.866426500000003,3.0769903999999997,1.3013556,-0.5626982
51956,14:24:05.456000,3.6964886,0.0167587,14.2784052,3.7086246,1.1315353000000001,-0.7630618
51957,14:24:05.467000,2.2289058999999996,4.7139807000000005,11.9178238,4.4477711,1.1449742,-1.0257336
51958,14:24:05.474000,1.3287247,7.5629577999999995,10.7495031,4.4477711,1.1449742,-1.0257336
51959,14:24:05.485000,-0.5865541999999999,9.1670036,7.960378599999999,4.9780016,1.3111296000000001,-1.5498555
51960,14:24:05.493000,-2.2456646,9.5189371,6.394638099999999,4.9780016,1.3111296000000001,-1.5498555
51961,14:24:05.504000,-4.436265000000001,8.611573199999999,3.9574451,4.442883999999999,1.2036173000000001,-1.6952413
51962,14:24:05.513000,-5.2885642,8.7408552,2.4515569,4.442883999999999,1.2036173000000001,-1.6952413
51963,14:24:05.523000,-5.314899,8.9036531,2.106807,3.6353209000000004,0.6306262,-1.3446049999999998
51964,14:24:05.533000,-5.4705157,9.186157199999998,1.5106763,3.6353209000000004,0.6306262,-1.3446049999999998
51965,14:24:05.540000,-5.3292642,9.712859199999999,1.2880251,3.1527376,0.3667327,-1.1259153999999998
51966,14:24:05.551000,-4.5703344,9.7008877,1.3430893,2.0507379,-0.05109880000000001,-0.8168179
51967,14:24:05.560000,-3.8616812000000005,9.5859709,1.9655551,2.0507379,-0.05109880000000001,-0.8168179
51968,14:24:05.569000,-3.2535803,9.619488699999998,2.9303767999999994,1.5363896000000001,-0.217254,-0.7520663000000001
51969,14:24:05.580000,-3.0548699,10.3472948,4.115455600000001,0.8790992,-0.3443139,-0.6140108
51970,14:24:05.589000,-2.7795486,11.6448956,5.556703099999999,0.8790992,-0.3443139,-0.6140108
51971,14:24:05.598000,-2.2600293,13.2369719,6.7417822,0.48081540000000006,-0.45915649999999997,-0.3550042
51972,14:24:05.609000,-1.3885771999999998,13.837890599999998,7.4145240999999995,0.48081540000000006,-0.45915649999999997,-0.3550042
51973,14:24:05.618000,-0.5889483,13.423711800000001,7.390583,0.1448398,-0.5275733,-0.1937359
51974,14:24:05.632000,0.2250453,12.1596279,7.1918726,-0.31819559999999997,-0.515356,-0.012919899999999998
51975,14:24:05.639000,0.8738461,9.8397465,7.1128674,-0.7983353,-0.4273915,0.1654526
51976,14:24:05.650000,1.3502717,6.9572511,7.2014489,-1.6034551000000001,-0.14639370000000002,0.42079399999999995
51977,14:24:05.659000,1.8051505,4.407536,7.6778746,-1.6034551000000001,-0.14639370000000002,0.42079399999999995
51978,14:24:05.668000,1.7405096999999998,2.449163,8.3410397,-1.7549495,0.1602604,0.4122419
51979,14:24:05.687000,1.4029418,1.0797385,9.4351435,-1.7549495,0.1602604,0.4122419
51980,14:24:05.699000,1.4867353,1.4867353,9.5811834,-0.9070691999999999,0.2176817,0.1251355
51981,14:24:05.706000,1.6279871000000001,2.4898627,9.5237246,-0.9070691999999999,0.2176817,0.1251355
51982,14:24:05.719000,1.4508239,3.6773357000000004,9.301074,-0.2913176,0.1712559,-0.055680499999999994
51983,14:24:05.725000,1.1946553,4.5535760000000005,9.023358300000002,-0.1324928,0.23967280000000002,-0.10210620000000001
51984,14:24:05.734000,0.8882107,5.0946422,8.5636911,-0.1324928,0.23967280000000002,-0.10210620000000001
51985,14:24:05.744000,0.4069968,5.6596494,8.1949997,-0.06285419999999999,0.31053309999999995,-0.11676689999999999
51986,14:24:05.753000,-0.16758689999999998,6.0618582000000005,7.9651666,-0.050636900000000006,0.3862804,-0.09233229999999999
51987,14:24:05.764000,-0.4788198,5.9684882,7.735333,-0.1752533,0.4265974,0.0102929
51988,14:24:05.773000,-0.7014709,5.6524668,7.608446099999999,-0.1752533,0.4265974,0.0102929
51989,14:24:05.783000,-0.8690578999999999,5.384327900000001,7.6323872,-0.44769899999999996,0.3496284,0.12391379999999999
51990,14:24:05.793000,-1.1276205,5.0850654,7.7520914,-0.44769899999999996,0.3496284,0.12391379999999999
51991,14:24:05.803000,-1.1874731,4.771439099999999,7.9101024,-0.5772023000000001,0.29831579999999996,0.16423089999999999
51992,14:24:05.815000,-1.1108619,4.7139807000000005,8.0800838,-0.6883796,0.22989899999999996,0.18500020000000003
51993,14:24:05.822000,-0.9289103000000001,4.852837999999999,8.3937101,-0.7555748000000001,0.1346041,0.1947741
51994,14:24:05.832000,-0.7876585,4.910296400000001,8.506233199999999,-0.8594218000000001,-0.052320500000000006,0.25097359999999996
51995,14:24:05.842000,-0.7493529000000001,4.9916959,8.6833963,-0.8594218000000001,-0.052320500000000006,0.25097359999999996
51996,14:24:05.851000,-0.2561686,5.044365900000001,10.0839443,-0.9315039,-0.11585050000000001,0.28029509999999996
51997,14:24:05.864000,-1.2712663,5.3220816,8.7312784,-1.1172066999999999,-0.1353981,0.3682597
51998,14:24:05.871000,-1.7572685000000001,5.726684099999999,8.848588900000001,-1.1172066999999999,-0.1353981,0.3682597
51999,14:24:05.881000,-2.0373781,6.7489643,9.0305405,-1.1844019,-0.23069299999999998,0.4550025
52000,14:24:05.890000,-2.183418,7.649145599999999,9.0449047,-1.1844019,-0.23069299999999998,0.4550025
52001,14:24:05.900000,-2.1953886000000002,8.6474848,8.803100599999999,-1.2577056,-0.3773006,0.511202
52002,14:24:05.913000,-1.9966784,9.4303551,8.556509,-1.4250826,-0.5434558,0.5991665
52003,14:24:05.919000,-1.6567163,9.7511644,8.0345955,-1.6816457999999999,-0.7462628000000001,0.6785789000000001
52004,14:24:05.933000,-1.0103096999999999,10.3568707,7.8717966,-2.41224,-1.2496154,0.7702085999999999
52005,14:24:05.939000,-0.3519325,11.4126692,7.8382797,-2.41224,-1.2496154,0.7702085999999999
52006,14:24:05.949000,1.2688723999999998,12.8563099,9.0736341,-3.4274970999999996,-1.6686685,0.9436941999999999
52007,14:24:05.959000,3.0405054,14.6135788,9.272343600000001,-3.4274970999999996,-1.6686685,0.9436941999999999
52008,14:24:05.968000,3.8904104,15.2097092,9.1598225,-4.2155123,-1.6955466000000001,1.0573151
52009,14:24:05.980000,2.8513715,13.5338402,8.424833300000001,-6.677297099999999,-1.04803,1.8318915
52010,14:24:05.989000,0.509943,10.0576086,6.3802729000000005,-6.677297099999999,-1.04803,1.8318915
52011,14:24:05.998000,-2.1546887999999997,6.035522900000001,4.2591014000000005,-9.318676,-0.7425977,2.6321244
52012,14:24:06.007000,-0.8522992,1.2640841,6.1073461,-9.318676,-0.7425977,2.6321244
52013,14:24:06.017000,-3.8114052000000003,-1.4484297,2.3725517000000003,-9.8770065,-1.1262207,2.7897274
52014,14:24:06.030000,-3.5121427000000005,-3.5001721,3.6869121,-9.6595392,-1.3876708,2.7261975
52015,14:24:06.036000,-2.9208004,-5.199982599999999,4.0244799,-8.8202105,-1.7774023999999997,2.8337097
52016,14:24:06.047000,-1.2257784999999999,-7.395371000000001,3.9406865,-7.0877981,-2.2831986,2.9436652999999997
52017,14:24:06.055000,-0.775688,-10.0456381,3.9478687999999993,-7.0877981,-2.2831986,2.9436652999999997
52018,14:24:06.065000,-1.237749,-12.8203993,3.8161936,-6.6235409,-2.2917507,3.0829425
52019,14:24:06.075000,-1.0055215,-16.7610855,1.4532180000000001,-6.2240357,-2.3051896000000003,3.3883748
52020,14:24:06.085000,-1.4484297,-20.8118992,-1.9057026000000001,-5.7353439,-2.2709813,3.5325388999999996
52021,14:24:06.095000,-0.0406997,-20.266046499999998,-1.7022042000000002,-4.8874636,-2.1940124,3.5704126000000005
52022,14:24:06.104000,8.9252005,-15.0828218,4.5894876,-3.1660471,-2.0522916,3.4274702000000006
52023,14:24:06.114000,3.6869121,-15.336597400000002,-1.745298,-0.0384196,-1.4536443000000001,3.2271066000000004
52024,14:24:06.124000,3.1075404,-13.311188699999999,0.15082820000000002,-0.0384196,-1.4536443000000001,3.2271066000000004
52025,14:24:06.133000,0.1149167,-11.8172712,-1.4484297,-0.3072001,-0.4725955,2.8886876
52026,14:24:06.145000,-1.3167541999999999,-12.2577858,-1.8673970000000002,-1.0426812,-0.2832274,2.1837497000000003
52027,14:24:06.152000,0.23222759999999998,-11.1780472,-0.023941,-1.0426812,-0.2832274,2.1837497000000003
52028,14:24:06.162000,2.4036752999999997,-12.35355,1.3430893,-1.4556258,-0.41883940000000003,1.3712996000000002
52029,14:24:06.172000,1.4388534,-18.2669735,-0.193922,-1.6010116,-0.1683848,0.5759536999999999
52030,14:24:06.181000,0.4668492,-20.8478127,0.6703475999999999,-1.9944084,0.2531118,0.09947919999999999
52031,14:24:06.191000,0.4620611,-20.7137413,1.8530324,-1.8001535,0.6684998000000001,-0.2193922
52032,14:24:06.201000,0.028729200000000003,-18.9923859,2.4635274,-0.7800094,0.8713069999999999,-0.5480374
52033,14:24:06.220000,-0.038305599999999995,-14.750042,4.1537614000000005,0.44416350000000004,1.0166926,-0.7691705
52034,14:24:06.230000,-0.09097569999999999,-13.1555729,4.687645400000001,2.8265359,1.0447924000000002,-1.0965938999999998
52035,14:24:06.240000,0.0933698,-12.092593199999998,5.209559,2.8265359,1.0447924000000002,-1.0965938999999998
52036,14:24:06.249000,1.673475,-12.3080616,7.8454614000000005,3.6072211000000003,0.970267,-1.6194941
52037,14:24:06.261000,1.2640841,-12.7222414,8.72649,4.174103700000001,1.390542,-2.0336604
52038,14:24:06.268000,-1.1970493999999998,-11.1971998,8.4320164,4.174103700000001,1.390542,-2.0336604
52039,14:24:06.278000,-3.58636,-7.7425156,8.0681133,4.907141200000001,1.6776483,-2.1448379
52040,14:24:06.288000,-4.0699677,-4.4841470999999995,8.611573199999999,5.6365137,1.498054,-1.7758754
52041,14:24:06.298000,-2.0254076000000003,-2.4946511,9.3681078,6.180183400000001,0.8004465999999999,-1.4728866000000003
52042,14:24:06.311000,-0.0861876,-0.12928130000000002,9.952267599999999,6.486837400000001,0.12116500000000001,-1.6121638
52043,14:24:06.317000,0.0670348,3.2248509,10.294625300000002,6.518602400000001,-0.43960879999999997,-1.7587713
52044,14:24:06.331000,-1.7309333999999998,8.233305900000001,11.257052400000001,5.839321099999999,-0.6949502,-1.0501681999999999
52045,14:24:06.336000,-3.4929900000000003,12.863493,11.7215071,5.839321099999999,-0.6949502,-1.0501681999999999
52046,14:24:06.346000,-1.8650029,11.3049335,10.4143295,4.8949242,-0.9002008,-0.82537
52047,14:24:06.356000,1.5681346999999999,5.5997968,7.7425156,3.1356335,-1.2972629,-0.9731993
52048,14:24:06.365000,5.913424,0.43333190000000005,6.0738287,0.920638,-1.7395289,-1.3775917
52049,14:24:06.378000,8.269216499999999,-2.3103054,6.7202349,-1.6779805,-1.969214,-1.7722102
52050,14:24:06.385000,7.3714299,-3.1386635,6.983585799999999,-1.6779805,-1.969214,-1.7722102
52051,14:24:06.395000,4.759468599999999,-2.1810241,8.4751101,-1.8539095,-0.795132,-1.6805806
52052,14:24:06.404000,2.4132514,-1.1012853,9.0592699,-1.8539095,-0.795132,-1.6805806
52053,14:24:06.414000,2.6263263,-3.6869121,7.002739,-2.0347254,-0.5752206999999999,-1.8442923
52054,14:24:06.426000,3.3876498,-4.7091918,7.141596300000001,-3.1477211,-0.9673959000000001,-2.2743411
52055,14:24:06.434000,4.5439997000000005,-4.9079027,6.861486900000001,-3.1477211,-0.9673959000000001,-2.2743411
52056,14:24:06.443000,4.5320292,-5.1185832,7.539017200000001,-2.6614728,-1.0553603999999999,-2.0739775000000003
52057,14:24:06.453000,3.7395822999999995,-5.8511777,6.978797900000001,-2.6614728,-1.0553603999999999,-2.0739775000000003
