,time,ax,ay,az,wx,wy,wz
38682,14:21:43.004000,-7.4624062,-4.5104818,-1.6926279,2.5369861,0.4986795,0.2949559
38683,14:21:43.016000,-7.8574319,-2.1522946,-0.581766,3.8454582999999998,0.419267,0.7812041999999999
38684,14:21:43.024000,-7.687450900000001,-1.4005477,1.6399577,3.8454582999999998,0.419267,0.7812041999999999
38685,14:21:43.034000,-8.1423302,-2.2169354,4.0244799,3.8173585,0.2946506,0.7836477
38686,14:21:43.048000,-9.0401173,-2.0086489,2.7723663,1.9529994,0.36306740000000004,0.5173106
38687,14:21:43.053000,-10.6321926,-2.932771,1.8243033,0.7178309,0.3765065,0.5893927
38688,14:21:43.064000,-10.7495031,-4.4745703,0.629648,0.015336500000000001,0.1932471,0.5075367999999999
38689,14:21:43.072000,-9.9426918,-5.3555989,0.12928130000000002,0.015336500000000001,0.1932471,0.5075367999999999
38690,14:21:43.083000,-9.147851,-5.4537568,-0.2992623,-0.298648,-0.1744935,0.2192087
38691,14:21:43.096000,-8.4942617,-4.4841470999999995,-0.2082866,-0.298648,-0.1744935,0.2192087
38692,14:21:43.103000,-8.613966900000001,-3.7539468,-1.1755025,-0.1935792,-0.1928194,0.1459049
38693,14:21:43.115000,-8.6091785,-4.3333187,-0.3327797,-0.13860139999999999,-0.0889724,0.07870980000000001
38694,14:21:43.121000,-8.5158091,-4.682857,-0.459667,-0.13860139999999999,-0.0889724,0.07870980000000001
38695,14:21:43.131000,-8.326675400000001,-5.5207915000000005,-1.0629798000000001,-0.43303820000000004,0.035644,0.082375
38696,14:21:43.140000,-8.604391099999999,-5.669226200000001,-0.3184151,-0.5014550999999999,0.1590387,0.10192260000000002
38697,14:21:43.149000,-7.7161802999999995,-5.796113,0.7278060000000001,-0.5014550999999999,0.1590387,0.10192260000000002
38698,14:21:43.164000,-6.8782454,-4.922267,-0.2561686,-0.4134906,0.15781689999999998,0.3535989
38699,14:21:43.169000,-7.0673794999999995,-5.0060606,-1.2592959,-0.1703664,0.21523820000000002,0.6345966
38700,14:21:43.179000,-7.2445431,-5.427422,-1.3047838,-0.1703664,0.21523820000000002,0.6345966
38701,14:21:43.188000,-7.069773700000001,-6.3730912,-1.7261453000000002,0.11063139999999999,0.1419345,0.8154126
38702,14:21:43.199000,-6.9692216,-7.5078936,-1.9631610000000002,0.5174673,0.035644,0.9302552
38703,14:21:43.211000,-7.0673794999999995,-8.6546669,-2.159477,1.7782921000000003,-0.0559857,1.3138783
38704,14:21:43.218000,-7.354671499999999,-8.0010777,-2.8274305,1.7782921000000003,-0.0559857,1.3138783
38705,14:21:43.230000,-7.141596300000001,-8.005866099999999,-2.8944654,3.5045957999999997,-0.0388815,1.6083151000000002
38706,14:21:43.239000,-7.357065700000001,-7.8454614000000005,-2.5281682,4.2767291,0.0820697,1.6070933
38707,14:21:43.248000,-7.653933500000001,-7.07935,-2.0708954,4.864380799999999,0.2079078,1.586324
38708,14:21:43.260000,-7.831097099999999,-6.581377499999999,-3.4475021,4.864380799999999,0.2079078,1.586324
38709,14:21:43.266000,-7.6802687999999995,-6.3611207,-2.4060693,5.9663806,0.3887238,1.5533371999999999
38710,14:21:43.278000,-6.782482099999999,-4.0077214,-0.7661116,5.9663806,0.3887238,1.5533371999999999
38711,14:21:43.285000,-6.622077,-2.7532134,-3.4115907999999995,6.4489640999999995,0.37406300000000003,1.5289026000000001
38712,14:21:43.295000,-7.0745621,-3.2080922000000003,-2.0349839,6.720187700000001,0.6611695,1.4604858
38713,14:21:43.306000,-6.7154469,-2.8106720000000003,-2.9854412,7.0036292,0.6367348,1.3260956
38714,14:21:43.315000,-6.540678,-2.52338,-4.0292683,6.931547200000001,0.9556063,0.9974503
38715,14:21:43.328000,-6.8734574,-1.8338796000000002,-2.6622376,7.0390592000000005,1.141309,0.9009337
38716,14:21:43.334000,-7.9101024,-1.4197004999999998,-1.9655551,7.0390592000000005,1.141309,0.9009337
38717,14:21:43.345000,-9.923539199999999,-0.9504572,-1.3478776000000001,6.844804300000001,1.6397747999999999,0.6211576
38718,14:21:43.353000,-12.497195199999998,-0.40220859999999997,0.217863,6.844804300000001,1.6397747999999999,0.6211576
38719,14:21:43.363000,-14.225734699999999,0.6535890000000001,1.5106763,6.6187844,1.611675,0.5270845000000001
38720,14:21:43.375000,-14.0222359,1.4987059,2.5545032,6.363442900000001,1.2524865,0.3548206
38721,14:21:43.383000,-12.920950900000001,1.2401432,2.5305624,6.040906400000001,0.1639256,-0.14242320000000003
38722,14:21:43.395000,-10.7638683,-0.019152799999999998,2.1283537999999997,5.8564253,-0.17571520000000002,-0.36477800000000005
38723,14:21:43.402000,-9.3561382,-1.4651883999999997,0.4309378,5.8564253,-0.17571520000000002,-0.36477800000000005
38724,14:21:43.413000,-8.6666374,-2.7580017999999997,-0.9360925999999999,6.009141400000001,-0.145172,-0.6250064000000001
38725,14:21:43.421000,-7.7856088,-2.2743938,-3.4618669,6.009141400000001,-0.145172,-0.6250064000000001
38726,14:21:43.431000,-6.7298117,-0.8403287,-2.5952029,6.6676535999999995,-0.0401032,-0.7459576
38727,14:21:43.445000,-6.6196828,0.9624277,-0.3974204,6.727518099999999,0.0967304,-0.7459576
38728,14:21:43.450000,-7.9843197,1.8913380000000002,2.6215382000000003,6.727518099999999,0.0967304,-0.7459576
38729,14:21:43.462000,-10.651345300000001,2.7747604999999997,5.602191,4.9376845000000005,0.6159654999999999,-0.8852348
38730,14:21:43.469000,-13.7660685,3.4810195,8.0896597,3.580343,0.6611695,-0.9328822
38731,14:21:43.479000,-13.734945300000001,1.5370114,8.305128100000001,3.580343,0.6611695,-0.9328822
38732,14:21:43.493000,-11.0559483,-3.9646275,3.9335042999999996,1.2370659,0.5035664000000001,-1.1674541999999999
38733,14:21:43.499000,-9.0472994,-5.764989900000001,2.2576351000000003,1.3042610000000001,0.6526173000000001,-0.9829730999999999
38734,14:21:43.511000,-8.1159954,-5.0683069000000005,0.9169398000000001,1.3042610000000001,0.6526173000000001,-0.9829730999999999
38735,14:21:43.519000,-6.6555943,-4.096303,0.3950263,2.6652677000000002,0.5927526,-0.7141926
38736,14:21:43.529000,-5.8511777,-2.8824949,1.9009144,2.6652677000000002,0.5927526,-0.7141926
38737,14:21:43.538000,-5.6931671999999995,-2.4515569,3.2894917,3.0721035,0.6086351,-1.0000774
38738,14:21:43.546000,-5.5231862000000005,-3.3014622000000005,4.3285303,3.065995,0.7259211,-1.2199886
38739,14:21:43.558000,-5.7482309,-4.2638898,4.9629664,1.841822,1.0655620000000001,-1.5730684
38740,14:21:43.567000,-5.5160035999999995,-5.4657273,4.687645400000001,1.2761612,1.1107658999999999,-1.6671416000000001
38741,14:21:43.576000,-6.0570698,-6.3012681,4.5894876,1.0941236,1.0618968,-1.709902
38742,14:21:43.585000,-7.2086315,-5.4393926,4.771439099999999,1.0941236,1.0618968,-1.709902
38743,14:21:43.595000,-7.3163662,-4.4961176,5.3364458,1.2199616000000002,0.9238413000000001,-1.7526627000000001
38744,14:21:43.606000,-6.8040285,-5.214346900000001,4.948602200000001,1.3164784,0.6660564,-1.7770971999999998
38745,14:21:43.614000,-7.3115773,-6.2055039,3.7970405,1.3005958999999998,0.4620275,-1.8846093000000002
38746,14:21:43.635000,-8.4751101,-6.045099700000001,3.6533947,1.2737178,0.405828,-1.9029353999999998
38747,14:21:43.638000,-9.408807800000002,-4.0723619,4.0532093,1.2737178,0.405828,-1.9029353999999998
38748,14:21:43.644000,-9.935509699999999,-3.4810195,4.3069835,1.2627223,0.42171049999999993,-1.6414852
38749,14:21:43.657000,-10.4310884,-5.0252137,4.7618623,1.2627223,0.42171049999999993,-1.6414852
38750,14:21:43.663000,-10.0097265,-4.1944609,4.5368170999999995,0.9743940999999999,0.48890559999999994,-1.5987247
38751,14:21:43.674000,-9.5189371,-6.753752700000001,3.2416098,0.6396401999999999,0.22623379999999998,-1.5193123
38752,14:21:43.683000,-11.316905,-6.9596448,1.6423517,-0.005432899999999999,0.3007593,-1.2981793
38753,14:21:43.693000,-11.5730734,-6.5789833,0.9791864,-0.5063419,0.45836229999999994,-1.2432014999999998
38754,14:21:43.702000,-11.948947,-4.5679407,0.9887628,-0.8410958000000001,0.4314843,-1.1393545
38755,14:21:43.711000,-11.4246387,-3.5145371,1.2952073999999998,-1.1514151000000001,0.16148210000000002,-1.0538333999999998
38756,14:21:43.726000,-9.9618454,-3.0812049,0.7182297,-2.0799296000000003,-0.5116907999999999,-0.9903035
38757,14:21:43.731000,-9.0784216,-4.2303724,-0.08379349999999999,-2.0799296000000003,-0.5116907999999999,-0.9903035
38758,14:21:43.742000,-9.1406689,-6.679535400000001,-0.3447502,-2.5930560000000002,-0.637529,-0.8754609
38759,14:21:43.750000,-9.7248287,-8.4607449,-0.3830558,-2.8325147999999998,-0.5617816999999999,-0.7276316999999999
38760,14:21:43.759000,-10.0695791,-8.506233199999999,0.5458545,-2.7042332,-0.411509,-0.5260463000000001
38761,14:21:43.776000,-9.9283276,-6.9955564,1.2305667,-1.4580692,-0.3944048,-0.183962
38762,14:21:43.779000,-9.5261192,-5.7889309,1.4364593,-1.4580692,-0.3944048,-0.183962
38763,14:21:43.790000,-9.6218834,-5.4393926,1.9559786,-0.5930848000000001,-0.3198793,0.082375
38764,14:21:43.798000,-9.712859199999999,-5.3579931,1.8602147,-0.5930848000000001,-0.3198793,0.082375
38765,14:21:43.808000,-9.5189371,-4.5535760000000005,1.8578206000000002,-0.34996059999999996,-0.25024070000000004,0.27540820000000005
38766,14:21:43.818000,-10.2132254,-3.8880162000000005,1.8482443,-0.34996059999999996,-0.25024070000000004,0.27540820000000005
38767,14:21:43.828000,-10.687256800000002,-2.9974117000000002,1.3143603000000001,-0.21312689999999998,-0.1964846,0.3682597
38768,14:21:43.839000,-10.4191179,-1.9847078000000002,1.0893148000000001,-0.0652976,-0.1696066,0.5441887
38769,14:21:43.847000,-9.897204400000001,-1.1922611,1.4987059,0.045879699999999995,-0.28078400000000003,0.7298915
38770,14:21:43.856000,-8.8916826,-0.8355404000000001,0.4189673,-0.0127633,-0.4298349,0.9217030999999999
38771,14:21:43.867000,-8.3530102,-1.5226468,-0.8570873999999999,-0.24244839999999998,-0.5434558,1.1037408000000002
38772,14:21:43.877000,-8.020231200000001,-1.5441937,-1.9009144,-0.4916812,-0.4909214,1.3041044
38773,14:21:43.889000,-8.451169,-1.1826848,-3.5696013,-0.8093309,-0.3333183,1.4201688000000001
38774,14:21:43.895000,-9.7559519,0.17716329999999997,-1.4412475,-1.0194684,-0.20625839999999998,1.5521156
38775,14:21:43.907000,-11.4820976,2.4683158,-0.7349883,-1.3114617,0.3276373,1.7231576000000002
38776,14:21:43.915000,-12.3320026,2.9974117000000002,0.6440126,-1.3114617,0.3276373,1.7231576000000002
38777,14:21:43.926000,-11.8795176,3.0093822,1.7429038000000001,-2.465996,-0.307662,1.9589515
38778,14:21:43.935000,-11.9680996,4.3620481,1.139591,-3.1061822999999995,-0.515356,2.268049
38779,14:21:43.944000,-12.882644699999998,4.3261366,0.5985246999999999,-3.1061822999999995,-0.515356,2.268049
38780,14:21:43.954000,-13.7588863,3.2272451,-1.2018377,-3.7610292000000003,-0.8501099,2.7384147999999997
38781,14:21:43.964000,-14.1443348,1.1467732,-1.0797385,-4.5820312,-1.1909723,3.013304
38782,14:21:43.973000,-14.3430462,-0.0335174,-2.2241178,-5.407920400000001,-1.5953648,3.2148893
38783,14:21:43.984000,-14.328681,-0.7182297,-1.1228323,-6.1788316,-2.3381765,3.7756631
38784,14:21:43.995000,-14.237705199999999,-1.019886,-1.3023897,-6.1788316,-2.3381765,3.7756631
38785,14:21:44.004000,-14.0342073,-2.5185918999999997,-1.2999957,-6.0310025000000005,-2.5703049,4.0945344
38786,14:21:44.013000,-14.0102663,-2.252847,0.2130748,-5.3101821,-2.5605311,4.2093773
38787,14:21:44.021000,-14.5824547,-1.1012853,0.6200716,-4.7481865999999995,-2.5055532000000005,4.421958
38788,14:21:44.031000,-15.262379600000001,-1.9152790000000002,1.3287247,-4.079900299999999,-2.3894889,4.4402838
38789,14:21:44.041000,-14.4148693,-1.139591,2.0804718,-4.079900299999999,-2.3894889,4.4402838
38790,14:21:44.053000,-15.3198376,-1.0534035,1.7069923999999999,-2.7384417,-2.0315223000000002,4.1238561
38791,14:21:44.060000,-15.243227,-0.18434560000000003,2.8226426,-2.7384417,-2.0315223000000002,4.1238561
38792,14:21:44.070000,-13.988719,2.7340607999999995,4.6565218,-2.1043642000000005,-1.902019,4.0163436
38793,14:21:44.079000,-14.7548313,3.4211669000000002,5.1353421,-1.5106037,-2.0217483,4.1055303
38794,14:21:44.089000,-13.773249599999998,3.952657,4.6780691,-1.1501934999999999,-1.9252316999999999,4.293676400000001
38795,14:21:44.101000,-14.7117367,3.3565266000000005,3.5887538999999995,-1.3187921,-1.7859546999999998,4.331550099999999
38796,14:21:44.109000,-13.0526257,4.1585493,4.1872787,-1.3187921,-1.7859546999999998,4.331550099999999
38797,14:21:44.119000,-14.3406506,4.139396700000001,3.9574451,-1.6413287,-1.9093491999999999,4.4072971
38798,14:21:44.128000,-14.225734699999999,4.515270200000001,4.9821196,-1.8856745,-1.9728792000000002,4.4512795999999994
38799,14:21:44.138000,-14.0174484,5.5160035999999995,5.334052099999999,-1.8856745,-1.9728792000000002,4.4512795999999994
38800,14:21:44.148000,-14.5848503,5.6045852,4.685251200000001,-2.2436414,-2.0852783,4.5319138
38801,14:21:44.158000,-14.6111851,5.9780644999999994,4.2112193,-2.6345947,-1.9814311999999998,4.5820045
38802,14:21:44.168000,-14.474720999999999,6.6627769,3.9215337999999997,-3.1819296,-1.8433758999999998,4.5514612
38803,14:21:44.178000,-14.6207609,6.4113964999999995,3.8808341,-3.9430668,-1.9069058999999997,4.5453525
38804,14:21:44.188000,-15.403631200000001,5.9517293,3.2679447999999995,-5.6058407,-2.2098949,4.3926362999999995
38805,14:21:44.196000,-15.9686394,5.2071648,2.837007,-5.6058407,-2.2098949,4.3926362999999995
38806,14:21:44.207000,-15.602341699999998,3.8592873,2.5712618999999997,-7.032820200000001,-2.6765953999999996,3.9992394
38807,14:21:44.220000,-15.101975400000002,2.4922566,2.1235654,-7.514182099999999,-2.8977284,3.7011375
38808,14:21:44.225000,-14.625549300000001,1.0629798000000001,1.9607668999999999,-7.514182099999999,-2.8977284,3.7011375
38809,14:21:44.238000,-14.118,-0.4046027,2.3318522,-7.927125900000001,-3.5941142999999998,2.9900911
38810,14:21:44.245000,-13.543417000000002,-0.6751359,2.693361,-7.927125900000001,-3.5941142999999998,2.9900911
38811,14:21:44.256000,-11.9561291,-1.3718187,2.2911525,-7.2600622,-3.9068769999999997,2.4842951
38812,14:21:44.263000,-10.2180128,-2.1020187999999997,1.8386679,-7.2600622,-3.9068769999999997,2.4842951
38813,14:21:44.273000,-9.4566898,-2.2719998,2.2241178,-6.7432704,-3.8665599999999998,2.0627985
38814,14:21:44.286000,-8.175847099999999,-2.6023853,1.4244888,-5.629053099999999,-3.7175089999999997,1.4885856000000002
38815,14:21:44.293000,-6.416184400000001,-2.4563452999999997,1.4699767,-5.629053099999999,-3.7175089999999997,1.4885856000000002
38816,14:21:44.306000,-5.3747516,-2.2983347999999997,1.8362738,-4.3999934000000005,-3.3705377999999997,1.0279936
38817,14:21:44.313000,-3.8066169999999997,-1.4484297,1.8482443,-4.3999934000000005,-3.3705377999999997,1.0279936
38818,14:21:44.322000,-2.8848889,-0.9265162,1.2066257,-3.7769117,-3.1579568,0.9473594000000001
38819,14:21:44.334000,-2.1618712,-0.0790053,1.8123327,-2.7787588,-2.4371364,1.170936
38820,14:21:44.343000,-2.8705244,-0.799629,1.9296436000000001,-2.6468119999999997,-2.1695778,1.4946941999999999
38821,14:21:44.354000,-3.8473167,-1.6615044999999997,2.2121472,-2.7738718999999996,-1.9350057,1.7463706
38822,14:21:44.361000,-5.767384099999999,0.7828703,2.8202484,-2.7738718999999996,-1.9350057,1.7463706
38823,14:21:44.371000,-3.9478687999999993,-3.1649985000000003,2.0230136,-3.0683086,-1.8213846999999999,1.9760556
38824,14:21:44.381000,-3.0285349,-2.7460313,1.7285392,-3.2234682999999995,-1.5782607,2.1886365000000003
38825,14:21:44.390000,-2.0421662,-2.8202484,0.6344361999999999,-3.6950559999999997,-1.6381253999999998,1.4494903000000001
38826,14:21:44.402000,-0.3806617,-4.5703344,0.27053309999999997,-4.0603527999999995,-1.5403869,0.9510245999999999
38827,14:21:44.410000,-0.265745,-6.136075,-1.6040461000000001,-4.0603527999999995,-1.5403869,0.9510245999999999
38828,14:21:44.420000,0.23462170000000002,-7.608446099999999,-2.9399533,-3.8685415,-1.0125998999999999,0.0701577
38829,14:21:44.428000,0.28489770000000003,-7.9699545,-3.3445561,-3.8685415,-1.0125998999999999,0.0701577
38830,14:21:44.440000,0.059852499999999996,-7.656328200000001,-3.2942801,-1.8184793999999997,-0.2856709,-0.5626982
38831,14:21:44.451000,-0.1604046,-6.983585799999999,-3.102752,-0.6700537,0.0930653,-0.748401
38832,14:21:44.457000,-0.09097569999999999,-6.4832196,-3.0333229999999998,-0.6700537,0.0930653,-0.748401
38833,14:21:44.469000,-0.11731079999999999,-5.8511777,-2.7532134,1.1124495,0.8676417,-1.0074077
38834,14:21:44.477000,-0.6344361999999999,-5.2718053,-2.5018332,1.1124495,0.8676417,-1.0074077
38835,14:21:44.487000,-0.6152834,-5.0707011,-2.0014665000000003,1.7257577000000002,1.2158346000000002,-1.1002591
38836,14:21:44.501000,-0.8714519000000001,-4.8145323,-1.5250409,2.5198817000000004,1.8132602999999998,-1.3837004
38837,14:21:44.506000,-1.2664783000000002,-4.5511813,-0.9049693000000001,2.5198817000000004,1.8132602999999998,-1.3837004
38838,14:21:44.516000,-2.1379302000000004,-4.675674900000001,-1.0581916999999998,2.9523740000000003,2.5927236000000002,-1.5364165
38839,14:21:44.526000,-2.4539514,-4.0699677,-1.0845268,2.9523740000000003,2.5927236000000002,-1.5364165
38840,14:21:44.535000,-4.0915146,-4.7690444,-2.2696054,3.245589,3.3086572,-1.5388600000000001
38841,14:21:44.549000,-4.1585493,-4.651733900000001,-0.9863687,3.245589,3.3086572,-1.5388600000000001
38842,14:21:44.555000,-4.0172977,-5.0707011,0.45248469999999996,3.8246888999999995,3.3367568999999997,-1.6549243000000002
38843,14:21:44.566000,-4.3812003,-5.3460225999999995,0.4381201,4.139895,3.579881,-1.6818023000000002
38844,14:21:44.574000,-5.5183973,-5.5064268,0.4788198,4.139895,3.579881,-1.6818023000000002
38845,14:21:44.584000,-6.8638811,-5.5782499,0.9480630999999999,4.4392190000000005,3.9219654000000004,-1.5718466
38846,14:21:44.594000,-8.051354400000001,-5.3292642,2.0206193999999997,4.8191767,4.1430983999999995,-1.4411216
38847,14:21:44.603000,-8.7791595,-4.2638898,3.5169311000000003,5.2528906,4.2420588,-1.3702613000000001
38848,14:21:44.617000,-9.447114,-2.327064,4.529635,6.1447535,4.1186638,-1.3824786
38849,14:21:44.623000,-10.2156191,-0.6679536,5.9325767,6.4281945,4.1052251,-1.5193123
38850,14:21:44.632000,-10.8428726,0.7325941999999999,6.732205400000001,6.4281945,4.1052251,-1.5193123
38851,14:21:44.642000,-11.7215071,1.6591103999999999,8.0130482,6.1105447,3.9854953,-2.0971903999999997
38852,14:21:44.651000,-12.35355,2.9902293999999996,8.424833300000001,6.1105447,3.9854953,-2.0971903999999997
38853,14:21:44.667000,-12.377491000000001,4.1920671,9.9283276,5.248004,3.6470761,-2.5748866
38854,14:21:44.673000,-12.293697400000001,5.5830383,10.8428726,4.8619375,3.3269830000000002,-2.7324896
38855,14:21:44.684000,-12.0973806,6.5718012,11.908247,4.8619375,3.3269830000000002,-2.7324896
38856,14:21:44.690000,-11.3528156,6.854304300000001,11.762207,3.7819282999999997,2.6232669,-3.0574696
38857,14:21:44.702000,-9.655400300000002,4.4937234,11.3887281,2.5760813,2.1932182,-3.4985138999999994
38858,14:21:44.709000,-8.3027344,1.9966784,10.079155900000002,2.5760813,2.1932182,-3.4985138999999994
38859,14:21:44.719000,-8.240488099999999,0.6009188,8.910836199999999,0.8632168,2.1944399,-3.8332678999999996
38860,14:21:44.729000,-9.408807800000002,-0.122099,7.270877799999999,-2.1617854,3.1266192999999998,-3.6267955
38861,14:21:44.739000,-11.2043819,-1.0486152,6.2749329000000005,-2.1617854,3.1266192999999998,-3.6267955
38862,14:21:44.748000,-13.383011800000002,-0.6392244,6.1504392999999995,-2.7030115,3.4796991000000004,-3.1527646000000003
38863,14:21:44.758000,-14.070117999999999,-0.5458545,6.191139700000001,-2.5698431,3.4515994,-2.6176472
38864,14:21:44.768000,-13.1076908,-1.1156501,7.1248379,-2.0958121,3.10585,-2.3855186
38865,14:21:44.781000,-12.41819,-1.7476921000000003,7.601263499999999,-1.1929538999999998,2.2408655,-2.6579642000000003
38866,14:21:44.788000,-13.1651487,-3.2368214,6.6364417,-1.1929538999999998,2.2408655,-2.6579642000000003
38867,14:21:44.798000,-13.6439686,-5.350810500000001,4.1441851000000005,-1.0939938999999999,2.0795972,-2.6066515
38868,14:21:44.807000,-14.860171300000001,-5.1592832,3.0764169999999997,-0.9705992,1.8328080000000002,-2.4356093
38869,14:21:44.816000,-14.3669872,-2.7939133999999997,4.3500776,-0.2962045,1.3893201000000002,-2.1423943
38870,14:21:44.826000,-12.6049299,-0.9480630999999999,6.5095544,0.9621768,0.5304444,-1.8198577
38871,14:21:44.838000,-11.834030199999999,0.8211759,8.2452765,1.9823209,-0.27834050000000005,-1.9823476999999998
38872,14:21:44.847000,-12.3320026,1.8458501,9.0042048,2.3085227,-0.7193848,-2.2193632
38873,14:21:44.856000,-12.281726800000001,1.9847078000000002,8.807889,2.0544031000000005,-0.8415577,-2.2450197
38874,14:21:44.866000,-11.8220596,2.3581872,7.6443577000000005,1.4484251,-0.8268969999999999,-2.3366492
38875,14:21:44.876000,-11.707142800000002,3.2368214,6.792058,0.7105005999999999,-0.7364890000000001,-2.5480084
38876,14:21:44.886000,-11.6520786,3.5121427000000005,6.3683023,-1.1001025,-0.7328238,-2.5675561
38877,14:21:44.897000,-11.410275500000001,2.2815759,5.8679361,-2.12269,-0.9099746,-2.6408598
38878,14:21:44.904000,-11.0224314,0.0646407,4.7163744,-2.12269,-0.9099746,-2.6408598
38879,14:21:44.913000,-9.7774992,-2.6502673999999997,3.9406865,-3.0072222,-1.1543205,-2.7300463
38880,14:21:44.922000,-10.4622116,-2.3150935,2.52338,-3.4299405,-1.377897,-2.8326714
38881,14:21:44.932000,-9.890022300000002,-1.3215424999999998,5.5112157,-3.129395,-1.2190721000000002,-2.9023101000000002
38882,14:21:44.947000,-9.3154383,-2.0445604,5.312504799999999,-2.6981246,-2.1964557,-2.5687778
38883,14:21:44.952000,-7.974742900000001,-2.3318522,4.6182165,-2.9595747,-2.1060476,-2.6506338
38884,14:21:44.972000,-8.5948153,-0.7014709,4.1824902999999996,-2.9595747,-2.1060476,-2.6506338
38885,14:21:44.982000,-8.7695837,-2.183418,4.6613107000000005,-3.5289006,-1.833602,-1.8100839
38886,14:21:44.991000,-8.5493269,-2.640691,4.613428599999999,-3.5289006,-1.833602,-1.8100839
38887,14:21:45.001000,-8.429621699999998,-3.4091966,5.422633599999999,-3.7989028,-1.545274,-1.1100329
38888,14:21:45.014000,-7.9891076000000005,-4.172914,5.4178457,-3.7805769000000002,-1.59903,-1.0770463
38889,14:21:45.021000,-6.693900099999999,-5.8870888,3.6557887000000004,-3.7805769000000002,-1.59903,-1.0770463
38890,14:21:45.031000,-6.8040285,-5.48488,2.157083,-3.1941469,-1.2288461000000002,-1.0978156000000001
38891,14:21:45.040000,-5.757807700000001,-5.8248425,3.1338751,-3.1941469,-1.2288461000000002,-1.0978156000000001
38892,14:21:45.051000,-6.5526485,-5.8320246,3.6893062999999993,-2.5331912,-0.9930521999999999,-1.0074077
38893,14:21:45.063000,-6.794452199999999,-3.4905961000000003,5.6237378,-1.4226391,-0.8330056999999998,-0.5810241
38894,14:21:45.068000,-6.8590932,-5.2215295,4.1968551,-1.2320493000000001,-0.6497461999999999,-0.5822459
38895,14:21:45.082000,-6.8064227,-5.0563364,3.3110385,-1.3468919,-0.5556731,-0.6164543
38896,14:21:45.087000,-7.0123148,-3.8856222999999996,3.4858077000000005,-1.3456701000000002,-0.7560366999999999,-0.4979465
38897,14:21:45.097000,-7.2014489,-4.1274261,3.4211669000000002,-1.2674794,-0.6998371,-0.5113856
38898,14:21:45.109000,-7.0434384,-4.0532093,3.2009101,-1.2674794,-0.6998371,-0.5113856
38899,14:21:45.116000,-6.739388000000001,-4.0939087999999995,2.8537657000000003,-1.3273442,-0.515356,-0.6274499
38900,14:21:45.126000,-6.6053185,-4.2399492,2.7771543999999997,-1.4043132,-0.36874850000000003,-0.6494409999999999
38901,14:21:45.136000,-6.6053185,-4.630187,2.667026,-1.5729118999999998,-0.21481060000000002,-0.6763191
38902,14:21:45.146000,-6.466460700000001,-4.5463934,2.8465835999999998,-1.8624618000000002,-0.0388815,-0.7166361
38903,14:21:45.156000,-6.1001635,-5.0850654,2.2672114,-2.0628252000000002,-0.068203,-0.6677668999999999
38904,14:21:45.165000,-5.848783,-5.4082689,1.8889439,-2.2204285,-0.10974180000000001,-0.6897581
38905,14:21:45.176000,-5.3603868,-4.5703344,2.0038607,-2.1507897000000002,-0.2966664,-0.6066805000000001
38906,14:21:45.185000,-5.1951947,-4.476964499999999,1.2856309,-2.1507897000000002,-0.2966664,-0.6066805000000001
38907,14:21:45.194000,-5.4154515,-4.625399099999999,0.9073634,-2.1825547000000003,-0.30155329999999997,-0.49305959999999993
38908,14:21:45.209000,-5.3412347,-4.4386592,0.557825,-2.3316058999999996,-0.2978882,-0.333013
38909,14:21:45.215000,-5.0060606,-4.8576264,0.10294629999999999,-2.380475,-0.3736354,-0.2438268
38910,14:21:45.228000,-4.6924334000000005,-5.257441,-0.4093909,-2.3377144,-0.40784380000000003,-0.2083966
38911,14:21:45.234000,-4.7642565,-6.0570698,-0.7158355,-2.194772,-0.5275733,-0.0788933
38912,14:21:45.243000,-4.8743849,-6.217474500000001,-0.4309378,-1.9345436000000003,-0.6155378,0.06038380000000001
38913,14:21:45.253000,-5.0515485,-5.4609389,-0.36390300000000003,-1.9345436000000003,-0.6155378,0.06038380000000001
38914,14:21:45.263000,-5.597403,-5.4681215,-0.6272539,-1.6938630000000001,-0.7083891999999999,0.2204304
38915,14:21:45.272000,-5.9852471,-5.4729095,-1.041433,-1.6938630000000001,-0.7083891999999999,0.2204304
38916,14:21:45.281000,-6.246203400000001,-5.039578,-0.9887628,-1.7732755,-0.9246353999999999,0.17522639999999998
38917,14:21:45.293000,-6.1863508000000005,-4.3716245,-1.0342506999999999,-1.8636834999999998,-1.0187085,0.1923306
38918,14:21:45.300000,-6.023552400000001,-4.7331328,-1.2257784999999999,-1.8636834999999998,-1.0187085,0.1923306
38919,14:21:45.310000,-6.052281400000001,-5.2837758,-1.7405096999999998,-2.1312423,-1.0419213999999999,0.1471266
38920,14:21:45.320000,-5.973276599999999,-5.5231862000000005,-1.575317,-2.4904306,-1.0309258,0.14223970000000002
38921,14:21:45.330000,-5.9182119,-6.1671987,-1.4364593,-2.6639161,-1.0785732,0.2961776
38922,14:21:45.343000,-5.2478647,-6.602924300000001,-1.9990726000000003,-2.804415,-1.1482118000000001,0.5478539000000001
38923,14:21:45.349000,-5.2598348,-6.394638099999999,-2.8178542,-2.804415,-1.1482118000000001,0.5478539000000001
38924,14:21:45.361000,-6.6148949,-6.3419676,-3.8736517,-2.844732,-1.151877,0.7408871
38925,14:21:45.369000,6.9333100000000005,-14.924812300000003,2.2767880000000003,-2.7897543999999996,-1.0956774999999999,0.9888982
38926,14:21:45.379000,-6.5311017,-8.9419594,-4.3309245,-2.8166322999999998,-1.1506553,1.2784481
38927,14:21:45.392000,-6.516737,-7.9388312999999995,-3.9837801,-1.9174395,-1.4035532,2.1177762
38928,14:21:45.399000,-6.416184400000001,-7.8215202999999995,-4.1896729,-1.9174395,-1.4035532,2.1177762
38929,14:21:45.409000,-6.7441759,-7.5102877999999995,-3.8257697,-1.1391978,-1.6173561,2.6174636000000002
38930,14:21:45.418000,-6.703476400000001,-7.754486099999999,-3.416379,-1.1391978,-1.6173561,2.6174636000000002
38931,14:21:45.427000,-6.8878222000000004,-7.3594593999999995,-2.4611335,-0.8655305,-1.8152761000000002,2.7652929
38932,14:21:45.441000,-7.270877799999999,-6.0474935,-1.7381157999999999,-0.5625415,-1.9973136999999999,2.9119002999999997
38933,14:21:45.446000,-7.6802687999999995,-5.1281595,-1.1826848,-0.3243043,-2.1426997,3.0939381
38934,14:21:45.458000,-8.5948153,-4.8959322,-0.9791864,-0.7189229,-2.2673161,2.9326699
38935,14:21:45.466000,-9.358532,-6.4137907,-1.8003622,-0.7189229,-2.2673161,2.9326699
38936,14:21:45.475000,-9.4949961,-7.3235478,-2.2408764,-1.9663085999999999,-2.1023827,2.3083661
38937,14:21:45.485000,-9.8373518,-8.187817599999999,-2.8034897,-1.9663085999999999,-2.1023827,2.3083661
38938,14:21:45.494000,-10.186889599999999,-8.477503800000001,-2.6239324,-2.5246391,-2.0620654,1.9235213
38939,14:21:45.509000,-10.208437,-8.1973944,-2.6957552000000002,-3.5936522000000006,-2.0156398,0.7958649
38940,14:21:45.515000,-9.382473,-8.070507000000001,-2.1929946,-3.5936522000000006,-2.0156398,0.7958649
38941,14:21:45.534000,-7.756879799999999,-9.4830246,-4.1705198,-4.1287693999999995,-1.9374490000000002,0.011514700000000001
38942,14:21:45.544000,-7.3283366999999995,-10.4957294,-5.702743099999999,-5.4971065999999995,-1.5281696000000002,-1.3384963
38943,14:21:45.557000,-7.3762178,-11.5730734,-7.0123148,-6.1324058,-1.2471718999999999,-2.080086
38944,14:21:45.563000,-6.595742200000001,-11.5634966,-7.2229962,-6.1324058,-1.2471718999999999,-2.080086
38945,14:21:45.573000,-5.5327621,-10.9697599,-7.361853599999999,-5.9332638,-1.2166288,-2.3439796000000004
38946,14:21:45.583000,-5.063519,-10.876391400000001,-7.3522773,-5.6009535999999995,-1.2117417,-2.5467868
38947,14:21:45.593000,-4.2303724,-10.194071800000001,-7.0434384,-4.6589999,-1.3473537,-2.7508156
38948,14:21:45.607000,-4.1322145,-9.3752909,-6.801634299999999,-4.1422086,-1.292376,-2.8131237000000002
38949,14:21:45.612000,-3.5289016,-9.7391939,-7.3403072,-3.6412997000000003,-1.0956774999999999,-2.8717667999999996
38950,14:21:45.622000,-2.4994389999999997,-12.0423174,-8.1040249,-3.2002554,-0.9979391,-2.9169707000000002
38951,14:21:45.631000,-5.3364458,-9.384866699999998,-6.8519106,-3.2002554,-0.9979391,-2.9169707000000002
38952,14:21:45.640000,-3.5983305,-9.885233900000001,-6.6484122,-2.687129,-1.106673,-2.1680505
38953,14:21:45.650000,-3.0596582999999997,-10.2299843,-6.3563317999999995,-1.8453574000000001,-1.220294,-1.9701304
38954,14:21:45.659000,-4.2591014000000005,-9.200521499999999,-5.9253945,-1.5093819,-0.9698393,-2.0703123
38955,14:21:45.671000,-4.505693900000001,-6.653200599999999,-5.362781,-1.2882489,-0.709611,-1.6622546999999999
38956,14:21:45.679000,-4.476964499999999,-5.934970900000001,-5.927788700000001,-1.2882489,-0.709611,-1.6622546999999999
38957,14:21:45.690000,-4.405141400000001,-6.7274175000000005,-6.909369,-1.9821911,-0.2526842,-1.4545606000000002
38958,14:21:45.699000,-3.8856222999999996,-6.6627769,-6.7202349,-1.9821911,-0.2526842,-1.4545606000000002
38959,14:21:45.707000,-4.1992487999999994,-6.0331292,-6.0642519,-1.3016878,0.0930653,-1.1576803999999998
38960,14:21:45.718000,-3.8592873,-5.9613061,-5.4920626,-1.3016878,0.0930653,-1.1576803999999998
38961,14:21:45.728000,-3.9933567,-5.2718053,-5.2837758,-0.817883,0.22745549999999998,-0.9841949000000001
38962,14:21:45.739000,-4.2591014000000005,-5.2023764,-5.4633335999999995,-0.5442156,0.6733868000000001,-0.5358201
38963,14:21:45.747000,-4.752286,-7.0530152,-5.7506251,-0.5735371,0.8432072,-0.35866929999999997
38964,14:21:45.757000,-3.7156413,-7.907708199999999,-4.625399099999999,-0.221679,0.9507193000000002,-0.2328312
38965,14:21:45.765000,-3.7683115,-6.514342299999999,-4.7858032999999995,-0.221679,0.9507193000000002,-0.2328312
38966,14:21:45.775000,-4.555970200000001,-5.4753041,-4.876779099999999,0.14972670000000002,1.1449742,0.1556787
38967,14:21:45.785000,-4.412324,-5.3603868,-4.522452400000001,0.49914140000000007,1.4870586000000001,1.1953706
38968,14:21:45.794000,-3.9047748999999996,-5.9182119,-5.5543089000000005,0.49914140000000007,1.4870586000000001,1.1953706
38969,14:21:45.805000,-4.419506500000001,-7.302001,-7.258907300000001,0.8155693,1.6092315000000001,2.1593151
38970,14:21:45.815000,-3.5696013,-7.9723492,-7.8334908,0.8155693,1.6092315000000001,2.1593151
38971,14:21:45.824000,-2.8561597,-8.391316400000001,-5.4106631,2.7727797,1.4528501,3.0572863
38972,14:21:45.837000,-3.2870975,-6.2150807,-11.448579800000001,4.091025800000001,2.0771539,3.8465235
38973,14:21:45.843000,-2.1858122000000004,-5.3891163,-10.1294317,5.2626648000000005,2.2237612999999996,4.1531777000000005
38974,14:21:45.855000,-3.4762315999999998,-3.8018289,-9.104758300000002,5.2626648000000005,2.2237612999999996,4.1531777000000005
38975,14:21:45.862000,-4.6158223,-2.1618712,-7.974742900000001,6.054345099999999,2.1101406000000003,4.5991087
38976,14:21:45.872000,-5.7123194,-0.9648218000000001,-5.0084542999999995,6.455072400000001,2.0099587,5.0792484
38977,14:21:45.886000,-6.7226295,1.1012853,-2.7149078999999996,6.492946099999999,1.7790518,5.0841355
38978,14:21:45.893000,-8.3147049,6.9261274,-0.7685057,5.184474,0.9079588,4.263133
38979,14:21:45.903000,-8.1543007,2.9686825,-0.6871063000000001,5.184474,0.9079588,4.263133
38980,14:21:45.911000,-6.1791692000000005,4.759468599999999,-1.1994434999999999,3.6328773,0.4730231,3.035295
38981,14:21:45.921000,-6.3778790999999995,3.1506341,-3.7491589,0.2609041,-0.4945866,1.8868694
38982,14:21:45.930000,-3.9478687999999993,-3.9694157,-4.2734666,0.2609041,-0.4945866,1.8868694
38983,14:21:45.940000,-6.808816900000001,-3.7515528,-6.045099700000001,-1.1465281999999999,-0.7511498000000001,1.5044681
38984,14:21:45.954000,-7.373824099999999,-6.1576219000000005,-6.437731299999999,-1.8404706000000002,-1.399888,1.1819315000000001
38985,14:21:45.960000,-7.7951856,-7.8478556,-6.023552400000001,-1.4763951000000002,-1.6650033,1.2308006
38986,14:21:45.972000,-8.6857901,-8.221335400000001,-5.6093736,-1.4763951000000002,-1.6650033,1.2308006
38987,14:21:45.979000,-8.9922352,-7.1918726,-3.9335042999999996,-0.8789693999999999,-1.8164977999999998,1.3737431
38988,14:21:45.989000,-8.9419594,-6.8471227,-3.0572641,0.3207688,-1.6149125,1.3847386000000002
38989,14:21:46,-10.876391400000001,-6.289297599999999,-1.9631610000000002,0.2987777,-1.3705666,1.5044681
38990,14:21:46.007000,-11.2259293,-6.8399401,-2.1211715,0.2987777,-1.3705666,1.5044681
38991,14:21:46.017000,-11.8914881,-7.290030499999999,-1.9033084999999998,0.0642057,-0.9111964,1.5484504
38992,14:21:46.028000,-12.099775300000001,-7.8143387,-1.5681346999999999,-0.2705482,-0.5703338000000001,1.4775901000000002
38993,14:21:46.037000,-11.7502375,-8.3793459,-1.2281727,-0.6847144000000001,-0.31865759999999993,1.5423417
38994,14:21:46.047000,-11.697566,-8.999417300000001,-0.9265162,-1.0206901,-0.0889724,1.5276809999999998
38995,14:21:46.057000,-11.5587091,-9.801440199999998,-0.7924467,-1.1624107,0.1688125,1.5117985
38996,14:21:46.067000,-11.295357699999999,-10.5579748,-0.1867397,-1.2161669,0.4742448,1.5130202
38997,14:21:46.076000,-11.5778618,-11.0080662,0.0813994,-1.1123198,0.7381384,1.5166853999999999
38998,14:21:46.086000,-11.972888000000001,-11.1588936,0.8882107,-0.8789693999999999,1.0203578000000002,1.5069115
38999,14:21:46.096000,-11.977676400000002,-11.0751009,1.7716331000000003,-0.6382886999999999,1.2781428999999997,1.4519336999999999
39000,14:21:46.106000,-11.9058533,-11.3264809,1.0150979,-0.3890559,1.4271938999999998,1.3383128999999998
39001,14:21:46.118000,-11.9178238,-11.3504219,-1.0581916999999998,-0.37317340000000004,1.5554755,1.0731976
39002,14:21:46.126000,-13.603268599999998,-9.5907602,-6.796846400000001,-0.5087855,1.5982358,0.790978
39003,14:21:46.135000,-11.2211409,-10.754291499999999,-3.9167454,-0.4354817,1.5408146,0.5258628000000001
39004,14:21:46.154000,-8.221335400000001,-7.479164599999999,-1.3143603000000001,-0.0213154,1.3783246999999998,0.059162099999999995
39005,14:21:46.167000,-7.2541189,-3.9143515,-5.3555989,0.7007267,1.0973268,-0.8534698000000001
39006,14:21:46.174000,-8.2979469,-4.3644419,-3.4235613,0.7007267,1.0973268,-0.8534698000000001
39007,14:21:46.186000,-7.4432529999999995,-5.08746,-3.7635233,1.3848951999999999,1.4821715,-0.7936051
39008,14:21:46.193000,-8.6810017,-4.0412387999999995,-2.8106720000000003,1.9652166000000002,1.5176017,-1.3910307
39009,14:21:46.202000,-10.0767622,-3.1338751,-1.6854455000000002,2.0409639,1.6006794,-1.7196759
39010,14:21:46.216000,-10.984125099999998,-2.5377447999999996,-1.7405096999999998,1.570598,1.4491848999999999,-2.3940706
39011,14:21:46.222000,-11.3552103,-1.6615044999999997,-1.8027563999999998,0.7960216,1.633666,-2.9084187000000004
39012,14:21:46.236000,-11.427033400000001,-1.1826848,-2.1427186000000003,-0.11416680000000001,1.8841205,-3.2309551
39013,14:21:46.241000,-11.484492300000001,-1.5441937,-2.5497153,-0.11416680000000001,1.8841205,-3.2309551
39014,14:21:46.251000,-11.2450819,-2.5090156,-1.8506383999999998,-1.4397433000000002,2.3459343999999995,-3.3897800000000005
39015,14:21:46.260000,-10.7471094,-2.8226426,0.0430938,-1.3004662,2.3398256,-3.1112257999999997
39016,14:21:46.270000,-9.952267599999999,-2.2600293,1.0222802,-1.3004662,2.3398256,-3.1112257999999997
39017,14:21:46.284000,-8.7288837,-2.3988869,0.169981,0.4417201,1.769278,-1.7563276999999997
39018,14:21:46.290000,-7.2876363,-1.7381157999999999,-2.2408764,0.4417201,1.769278,-1.7563276999999997
39019,14:21:46.300000,-7.0171037,-0.8139936,-3.8425286,1.5913674999999998,1.2488213,-0.8913434000000001
39020,14:21:46.309000,-6.7298117,1.1108619,-3.7611291,2.9499307,0.6892691999999999,0.0616056
39021,14:21:46.318000,-6.8878222000000004,4.3859892,-3.1506341,4.2266383,0.126052,0.9974503
39022,14:21:46.331000,-7.776032400000001,3.1506341,-3.6605771000000003,4.6298089000000004,-0.7401542,2.489182
39023,14:21:46.337000,-7.4815583,0.8546931999999999,-4.2782545,4.6298089000000004,-0.7401542,2.489182
39024,14:21:46.347000,-8.5086269,2.8274305,-4.3788066,4.0458221,-0.7804713000000001,2.7261975
39025,14:21:46.357000,-8.781554199999999,5.2287116,-2.7651839,4.0458221,-0.7804713000000001,2.7261975
39026,14:21:46.366000,-8.846195199999999,6.083405,-2.5736562999999997,3.5241434999999997,-0.9368526,3.1366987
39027,14:21:46.379000,-8.8916826,5.018031099999999,-3.6940942000000003,2.4025958,-1.1054513000000001,3.3651621
39028,14:21:46.386000,-8.8509827,4.654128099999999,-3.9742040999999997,-0.09706260000000001,-1.4475354999999999,2.7799537
39029,14:21:46.397000,-8.62115,2.6789966,-4.1034851,-0.817883,-1.7236464,2.4280956000000002
39030,14:21:46.406000,-8.9299879,1.5010998,-4.5894876,-0.817883,-1.7236464,2.4280956000000002
39031,14:21:46.415000,-9.12391,-1.1060736,-3.5456602999999998,-1.3578874,-1.8873581999999998,2.3792264
39032,14:21:46.425000,-10.158161199999999,-1.9918901000000002,-4.0196919,-1.5863508,-1.9288968999999998,2.0603549
39033,14:21:46.434000,-12.102169,-1.4436415,-3.7970405,-1.9565348999999999,-1.7945068,1.5912108
39034,14:21:46.448000,-12.382279400000002,-3.7371883,-5.4705157,-3.1807077,-1.4915178,0.5588495
39035,14:21:46.455000,-11.697566,-5.0922480000000006,-4.522452400000001,-3.1807077,-1.4915178,0.5588495
39036,14:21:46.465000,-10.445452699999999,-6.6675649,-3.9143515,-3.6657343,-1.4182141000000001,-0.1925142
39037,14:21:46.475000,-9.3561382,-7.960378599999999,-3.7826760000000004,-4.0579095,-1.3461319999999999,-0.8864565000000001
39038,14:21:46.485000,-9.257980300000002,-9.1765804,-3.6150888999999995,-4.5856962,-0.7206066,-1.7709886000000001
39039,14:21:46.497000,-8.0609303,-10.1174612,-3.8640754,-4.5856962,-0.7206066,-1.7709886000000001
39040,14:21:46.503000,-7.1463852,-10.443059,-4.6972213,-4.7066474000000005,-0.4530478,-2.0324388
39041,14:21:46.512000,-6.6819296,-11.156499900000002,-4.6780691,-4.787281500000001,-0.2526842,-2.2303588
39042,14:21:46.522000,-5.901453500000001,-12.451707800000001,-5.4369984,-4.7286386,-0.0804203,-2.3500883999999997
39043,14:21:46.532000,-3.2535803,-14.960722899999999,-5.1521006,-4.3682284000000005,0.0332005,-2.7068334
39044,14:21:46.541000,-4.723557,-14.6231546,-5.5279741,-4.3682284000000005,0.0332005,-2.7068334
39045,14:21:46.551000,-4.5463934,-14.0725117,-5.870329900000001,-3.4201667000000002,-0.1708283,-2.9524008999999998
39046,14:21:46.563000,-3.7587349000000003,-14.0629358,-5.6835904,-2.9351401000000004,-0.23191479999999998,-3.1429907999999998
39047,14:21:46.571000,-4.9964838,-13.713398000000002,-7.3929772,-2.9351401000000004,-0.23191479999999998,-3.1429907999999998
39048,14:21:46.583000,-5.9948235,-11.7095366,-7.2541189,-2.4696612,-0.014446899999999999,-3.5192832999999997
39049,14:21:46.589000,-6.7298117,-10.505305300000002,-6.7657232,-2.4696612,-0.014446899999999999,-3.5192832999999997
39050,14:21:46.600000,-6.854304300000001,-11.7885418,-7.165537400000001,-2.4757697999999997,0.0112094,-3.8137202000000006
39051,14:21:46.611000,-7.2565136,-12.0638638,-7.0961084,-3.1232865000000003,0.1321606,-4.5003324000000005
39052,14:21:46.619000,-7.366642,-12.2266617,-7.270877799999999,-3.1232865000000003,0.1321606,-4.5003324000000005
39053,14:21:46.631000,-7.8646145,-12.822792999999999,-7.8837671,-3.3737409,0.5304444,-4.9768066
39054,14:21:46.639000,-8.4368038,-13.593692800000001,-8.700155300000002,-3.3737409,0.5304444,-4.9768066
39055,14:21:46.649000,-8.8054953,-14.0030842,-8.6738195,-3.306546,0.8444288000000001,-5.1783919
39056,14:21:46.663000,-8.4583511,-13.6655159,-8.290763900000002,-2.9021535,1.5139365,-5.430068
39057,14:21:46.681000,-7.5821104,-12.346366900000001,-8.585238499999999,-2.7604327,2.1602314,-5.5522413
39058,14:21:46.687000,-6.854304300000001,-11.2642345,-9.1358814,-2.7604327,2.1602314,-5.5522413
39059,14:21:46.696000,-6.3611207,-12.068652199999999,-9.516543400000002,-2.8948231,2.4143512,-5.6744142
39060,14:21:46.706000,-5.0323954,-12.116534199999998,-9.655400300000002,-2.9632398999999996,2.5988324,-5.783147799999999
39061,14:21:46.715000,-4.3812003,-12.7725172,-10.2275896,-2.5564041,2.8566172,-6.0201635
39062,14:21:46.728000,-3.9837801,-13.7493086,-10.6178284,-1.9724173999999999,2.916482,-6.171658
39063,14:21:46.736000,-2.9447415,-12.5618362,-10.6896505,-1.9724173999999999,2.916482,-6.171658
39064,14:21:46.748000,-3.5289016,-13.7564907,-11.458156599999999,-0.6199628,3.1987014,-6.2425184
39065,14:21:46.756000,-3.2296392999999997,-13.301612900000002,-11.838817599999999,-0.6199628,3.1987014,-6.2425184
39066,14:21:46.765000,-2.7388489,-12.9233446,-12.0159817,0.1533919,3.3062136,-6.4441037
39067,14:21:46.777000,-1.9775256,-12.2194796,-11.9633112,1.3714561,3.4173911,-6.8179531
39068,14:21:46.783000,-1.163532,-11.072707199999998,-11.5658913,1.3714561,3.4173911,-6.8179531
39069,14:21:46.794000,-0.22265120000000002,-9.6697655,-11.3887281,1.9468907,3.3587480000000003,-7.0696292000000005
39070,14:21:46.803000,0.6966828,-8.664242699999999,-11.041583099999999,1.9468907,3.3587480000000003,-7.0696292000000005
39071,14:21:46.813000,1.8961263,-7.7736387,-10.522064199999999,2.0751724,3.2353532000000005,-7.219902
39072,14:21:46.825000,2.7915192,-6.739388000000001,-10.201254800000001,2.3341789,2.906708,-7.3933873
39073,14:21:46.832000,3.3541322,-6.0211587,-10.2299843,2.3341789,2.906708,-7.3933873
39074,14:21:46.845000,3.9263220000000003,-5.719501999999999,-10.201254800000001,2.7263541,2.6623623,-7.2101277999999995
39075,14:21:46.850000,4.2543135,-4.675674900000001,-9.9881802,2.9792521,2.5426328,-7.026868799999999
39076,14:21:46.861000,4.6613107000000005,-4.010115600000001,-9.626670800000001,3.0525558,2.4021339,-6.7593098
39077,14:21:46.870000,4.4745703,-3.7611291,-9.3537436,2.8497488,2.2408655,-6.43433
39078,14:21:46.879000,4.5679407,-3.6462126000000006,-8.9204121,2.8497488,2.2408655,-6.43433
39079,14:21:46.891000,4.1848845,-3.5528426,-8.9180183,2.1619151000000003,1.9012248999999999,-5.619436299999999
39080,14:21:46.900000,3.9550512,-3.1554222000000003,-9.2244616,2.1619151000000003,1.9012248999999999,-5.619436299999999
39081,14:21:46.910000,3.4331373999999997,-0.3208092,-8.4391975,1.7978398000000002,1.7033048,-5.0757666
39082,14:21:46.920000,4.3644419,-0.7637175,-8.2716112,1.4936291000000002,1.4650674,-4.4758973
39083,14:21:46.929000,2.6502673999999997,-0.4069968,-8.6786079,1.1613187,1.3783246999999998,-4.1179309
39084,14:21:46.941000,2.3366406000000004,-0.1197049,-9.1406689,0.5333498000000001,1.5359278,-3.5608222
39085,14:21:46.949000,1.5274348999999998,-0.22743939999999999,-9.214885699999998,0.11674000000000001,1.6739831000000003,-2.835115
39086,14:21:46.960000,0.45248469999999996,-0.169981,-9.0736341,0.0752012,2.0722668,-1.4777735
39087,14:21:46.967000,-0.6033128000000001,0.33517379999999997,-8.700155300000002,0.0752012,2.0722668,-1.4777735
39088,14:21:46.979000,-1.3933655,0.009576399999999999,-7.874190799999999,-0.1801402,2.9042647,-0.20228800000000002
39089,14:21:46.990000,-2.0062547,-0.0646407,-7.069773700000001,-0.1801402,2.9042647,-0.20228800000000002
39090,14:21:46.996000,-2.8154602000000004,-0.1484341,-6.5095544,-0.4794639,3.4173911,0.3694814
39091,14:21:47.009000,-3.0572641,-1.4388534,-6.495190099999999,-1.2112798999999999,4.510839,1.2210268999999998
39092,14:21:47.016000,-4.0699677,-1.1802906000000002,-6.6340475,-1.2112798999999999,4.510839,1.2210268999999998
39093,14:21:47.025000,-5.0084542999999995,-1.0462211,-7.4576173,-1.563138,5.6091738,1.9870511999999998
39094,14:21:47.034000,-6.1815629,-0.3998145,-8.2117586,-1.563138,5.6091738,1.9870511999999998
39095,14:21:47.045000,-7.4408588,0.11252260000000001,-8.192606,-1.3139051000000002,6.1919389,2.2656054
39096,14:21:47.059000,-8.252458599999999,-0.1987102,-7.7473035,-0.1972444,7.456428999999999,2.6309025000000004
39097,14:21:47.064000,-9.2603741,0.4046027,-6.9955564,0.44294179999999994,8.0795107,2.8899093
39098,14:21:47.074000,-11.527585,1.8243033,-9.712859199999999,1.0305936,8.6537228,3.1440289
39099,14:21:47.083000,-11.292964,0.459667,-5.5016389000000006,1.0305936,8.6537228,3.1440289
39100,14:21:47.091000,-12.104562800000002,1.3933655,-2.6287205,1.6414583999999999,8.631732000000001,2.9045701
39101,14:21:47.104000,-11.108617800000001,0.09815800000000001,-1.1898671,2.1301501,8.753905300000001,3.1073771
39102,14:21:47.112000,-11.656867,-0.019152799999999998,-2.5161977,2.5736380000000003,9.1961708,3.1183727
39103,14:21:47.121000,-13.184302300000002,0.2394099,-4.0508150999999994,2.8143187000000003,9.6518764,3.1538029
39104,14:21:47.131000,-13.213030800000002,0.5243076,-4.4314770999999995,3.0525558,9.824139599999999,3.3944836000000005
39105,14:21:47.141000,-12.4876194,0.7302001,-4.524846599999999,2.9242742,9.015355099999999,3.4519047999999994
39106,14:21:47.151000,-12.250602699999998,1.2042316000000002,-3.4762315999999998,2.9242742,9.015355099999999,3.4519047999999994
39107,14:21:47.161000,-12.7030878,1.9631610000000002,-1.5489819,2.7556756,8.8821869,3.2112241000000004
39108,14:21:47.171000,-14.824258800000003,3.4666550000000003,0.8618754999999999,2.6579373,8.932277699999998,2.9656564999999997
39109,14:21:47.180000,-17.38834,5.082671599999999,3.8544991000000004,2.6579373,8.932277699999998,2.9656564999999997
39110,14:21:47.191000,-18.9564743,5.9996114,7.6228104000000005,2.5944073,8.923725099999999,2.7054281000000002
39111,14:21:47.200000,-19.0187206,5.8200541,10.6178284,2.4184783,8.598745300000001,2.3462396
39112,14:21:47.210000,-17.9581337,5.3699636,12.0638638,2.0165293,8.0000982,1.9919381
39113,14:21:47.222000,-16.2870541,5.9301825,12.5570478,1.3922255,7.2438478,1.8172308000000001
39114,14:21:47.229000,-14.285587300000001,6.3132386,13.081356,0.6652965999999999,6.4497237,1.7915744999999998
39115,14:21:47.240000,-12.906585699999999,6.3443613,11.9992228,-0.12271889999999999,5.684921299999999,1.7475922
39116,14:21:47.249000,-12.509165800000002,5.7051377,10.0001497,-0.9547167,5.127812400000001,1.7011665
39117,14:21:47.260000,-13.517082199999999,4.7666507000000005,8.424833300000001,-2.5466301,4.582921,1.6559626
39118,14:21:47.269000,-14.659067199999999,2.9016478,6.8950043,-2.5466301,4.582921,1.6559626
39119,14:21:47.279000,-15.458696400000001,0.8642696,6.2940855,-3.012109,4.268936599999999,1.6828406000000002
39120,14:21:47.298000,-15.4275723,-1.7572685000000001,7.196661,-3.0450957,3.9048612,1.6901709999999999
39121,14:21:47.309000,-14.917629199999999,-1.1731083,8.2356997,-1.4788386999999998,2.8431783,1.8661
39122,14:21:47.319000,-14.6231546,-0.44051409999999996,10.210830699999999,-1.4788386999999998,2.8431783,1.8661
39123,14:21:47.326000,-14.848199800000002,0.13885770000000003,12.116534199999998,-0.3817256,2.568289,2.0420291
39124,14:21:47.338000,-14.2496758,0.5123371,12.451707800000001,-0.3010914,2.5963887999999997,2.1849713
39125,14:21:47.346000,-14.908053400000002,1.2138082000000001,11.932188,-0.3010914,2.5963887999999997,2.1849713
39126,14:21:47.357000,-16.4283066,2.3629756,11.695172300000001,-0.4990116,2.7442181,2.3230269
39127,14:21:47.365000,-16.3397236,3.4714432,11.8005133,-0.9278386999999999,2.8859386000000002,2.5294991000000002
39128,14:21:47.375000,-15.8632984,3.7228234,11.8412123,-2.4843221,2.7918656000000004,2.5441599
39129,14:21:47.388000,-16.5647697,3.4068023999999997,12.1500511,-3.4580402,2.6696925,2.5038428
39130,14:21:47.393000,-17.8456116,2.3605812000000004,12.0494986,-3.4580402,2.6696925,2.5038428
39131,14:21:47.404000,-19.6890678,0.8546931999999999,12.068652199999999,-4.4293151,2.4827681,2.5233905
39132,14:21:47.413000,-22.2555428,-0.9001811,10.9410315,-5.2918557999999996,2.2091005,2.5258338
39133,14:21:47.422000,-25.8873901,-2.8202484,9.7559519,-6.0163417,1.8535773999999998,2.6028027999999996
39134,14:21:47.432000,-29.990875199999998,-4.917479,8.6450911,-6.4744902,1.4430763999999998,2.710315
39135,14:21:47.442000,-35.2818336,-7.7520914,8.1614828,-6.584446000000001,0.9421671999999999,2.8056099
39136,14:21:47.455000,-39.552902200000005,-11.015248300000001,8.791131,-5.9931288,-0.12195910000000001,2.8984612999999997
39137,14:21:47.461000,-40.2926788,-11.108617800000001,8.783947900000001,-5.9931288,-0.12195910000000001,2.8984612999999997
39138,14:21:47.470000,-37.393428799999995,-8.9180183,10.3568707,-5.5533060999999995,-0.4273915,2.7848406000000003
39139,14:21:47.481000,-34.3624992,-5.9613061,9.897204400000001,-5.300407900000001,-0.6961719,2.5844769
39140,14:21:47.491000,-30.8719044,-2.8417952,9.454296099999999,-6.4903727,-0.8623271999999998,2.2937052
39141,14:21:47.504000,-27.1658382,-1.0486152,7.5031056,-8.0065384,-0.9490700000000001,2.3816697999999996
39142,14:21:47.510000,-23.6967907,-2.9926236,5.3053231,-8.0065384,-0.9490700000000001,2.3816697999999996
39143,14:21:47.521000,-20.4743328,-4.7427095999999995,2.2743938,-11.179369900000001,-1.2703848,2.0811243000000004
39144,14:21:47.529000,-16.1936836,-3.7611291,-0.4309378,-11.179369900000001,-1.2703848,2.0811243000000004
39145,14:21:47.540000,-10.0432444,-2.8034897,-0.1436459,-13.2184362,-3.0333405,1.4568206
39146,14:21:47.551000,-5.4106631,-5.7314725,-5.8463888,-13.2184362,-3.0333405,1.4568206
39147,14:21:47.558000,10.490941000000001,-20.0625477,-2.1403244,-14.302110699999998,-3.960633,0.5502973000000001
39148,14:21:47.571000,13.845072699999998,-12.0758343,-9.686524400000001,-14.575778,-4.1292315,0.44522860000000003
39149,14:21:47.579000,16.172136300000002,-20.5748844,-9.4590836,-14.575778,-4.1292315,0.44522860000000003
39150,14:21:47.589000,2.039772,-13.0310793,-14.7213135,-8.7432413,-4.435885400000001,-2.8583279
39151,14:21:47.603000,4.5655465,-9.4662657,-10.150979,-8.7432413,-4.435885400000001,-2.8583279
39152,14:21:47.607000,1.7907859,-4.7427095999999995,-4.675674900000001,-1.4116435,-4.5727191,-4.820425
39153,14:21:47.620000,-1.7955738999999997,-1.5801051000000002,-4.1465788,-1.4116435,-4.5727191,-4.820425
39154,14:21:47.627000,-4.950995900000001,-2.6023853,-7.4432529999999995,-0.402495,-3.8360167,-4.848525
39155,14:21:47.638000,-6.511948599999999,-5.5231862000000005,-8.688183800000001,-0.5698719,-2.8525245,-5.008571599999999
39156,14:21:47.647000,-6.696293799999999,-7.5102877999999995,-8.6474848,-0.7897831999999999,-2.0303006000000003,-5.389751
39157,14:21:47.658000,-7.148778900000001,-6.693900099999999,-9.0472994,-0.1654795,-0.6363072,-5.8576736
39158,14:21:47.665000,-8.400893199999999,-4.6589160000000005,-11.869941699999998,-0.1654795,-0.6363072,-5.8576736
39159,14:21:47.675000,-9.111940400000002,-2.327064,-13.7660685,-0.32186079999999995,-0.1024114,-5.557128
39160,14:21:47.685000,-6.856699000000001,-0.9959450000000001,-10.9075136,-0.6859361999999999,0.198134,-4.776443
39161,14:21:47.694000,-4.4290824,-2.5664737,-7.5270467000000005,-0.6859361999999999,0.198134,-4.776443
39162,14:21:47.706000,-2.8537657000000003,-4.8480501,-5.8128719,0.46859809999999996,0.0845132,-4.6396093
39163,14:21:47.714000,-1.817121,-5.039578,-4.5535760000000005,0.46859809999999996,0.0845132,-4.6396093
39164,14:21:47.724000,-1.1946553,-4.7690444,-4.3093777,1.7880658999999999,1.0118058,-4.5064405999999995
39165,14:21:47.736000,-0.5769778,-4.3668360999999996,-4.852837999999999,1.7880658999999999,1.0118058,-4.5064405999999995
39166,14:21:47.743000,0.2633509,-2.3749461,-5.6644373,2.225445,1.5102712999999999,-4.4624586
39167,14:21:47.754000,1.4867353,1.4412475,-6.7729053,3.7917023000000003,2.7051227000000004,-4.4722323
39168,14:21:47.763000,2.2241178,5.3986925999999995,-6.6125007,3.7917023000000003,2.7051227000000004,-4.4722323
39169,14:21:47.772000,2.4204338,8.6714258,-4.7546802,4.7935205000000005,3.2377968,-4.3634982
39170,14:21:47.786000,1.9344318,9.5787888,-2.6263263,6.576023599999999,3.7313755,-3.8039463
39171,14:21:47.792000,1.7548743000000002,8.738459599999999,-0.7230178,6.885121300000001,3.7228234,-3.3494629999999996
39172,14:21:47.802000,0.5650073,6.3276029000000005,0.014364600000000002,6.827700099999999,3.4552646,-2.8021283
39173,14:21:47.820000,-1.8865498,2.5832324,1.8793674999999999,6.827700099999999,3.4552646,-2.8021283
39174,14:21:47.833000,-3.1985159,2.5257742000000003,5.4202394,5.3726201,2.7698742999999997,-1.6818023000000002
39175,14:21:47.839000,-4.6900395999999995,1.1826848,7.560564,3.801476,2.3935816,-1.1430197
39176,14:21:47.851000,-5.870329900000001,0.6511949,10.1892843,-0.6309584,1.214613,-0.25848760000000004
39177,14:21:47.859000,-6.9955564,-0.122099,11.6065912,-0.6309584,1.214613,-0.25848760000000004
39178,14:21:47.868000,-6.796846400000001,-1.5729228000000002,13.368646599999998,-3.0182178,0.38383690000000004,-0.0239155
39179,14:21:47.880000,-10.6178284,-5.875118700000001,16.5432224,-3.0182178,0.38383690000000004,-0.0239155
39180,14:21:47.889000,-13.9408369,-8.669032099999999,16.993312799999998,-2.8923794999999997,0.2323424,0.09092710000000001
39181,14:21:47.902000,-15.250409099999999,-12.5498657,21.0967979,-0.3878342,1.1571915000000002,0.4965412
39182,14:21:47.907000,-15.6286774,-17.460161199999998,25.6096745,-0.3878342,1.1571915000000002,0.4965412
39183,14:21:47.919000,-15.839357399999999,-17.8839188,25.691074399999998,1.7306446,1.4015374,0.5441887
39184,14:21:47.926000,-24.3336201,-10.1749201,21.0369453,2.9755868999999997,2.2188745,1.0157763000000002
39185,14:21:47.935000,-22.6074734,-16.887971899999997,26.493095399999998,3.4154096,3.1962581,2.1544282000000003
39186,14:21:47.946000,-21.8796673,-17.4410095,25.7245922,3.6353209000000004,3.8364441,3.2808626000000003
39187,14:21:47.954000,-23.119812,-7.0338621,20.8095055,3.6353209000000004,3.8364441,3.2808626000000003
39188,14:21:47.966000,-21.8437557,1.5729228000000002,18.9852047,1.3128132,5.1681294,4.271685099999999
39189,14:21:47.975000,-22.004161800000002,4.5487876,17.9772873,-0.8313219999999999,4.4179878,5.4775324
39190,14:21:47.986000,-21.254808399999998,-1.4412475,16.4163342,-0.8313219999999999,4.4179878,5.4775324
39191,14:21:47.995000,-17.170476899999997,-8.0681133,14.6854019,-5.8758426,1.0692270000000001,6.666275
39192,14:21:48.003000,-10.9434252,-9.7703171,13.344705599999998,-7.845270599999999,-0.30277509999999996,6.2264524
39193,14:21:48.014000,-3.7132473,-8.4224386,8.8701363,-9.942979800000002,-1.3754534999999999,5.211195
39194,14:21:48.023000,2.5688679,-8.2620354,3.5480542,-9.942979800000002,-1.3754534999999999,5.211195
39195,14:21:48.032000,7.723362400000001,-13.2154245,-0.8259639999999999,-13.4603386,-3.2593603,3.0084171000000004
39196,14:21:48.043000,5.4417862999999995,-22.1023197,-5.8032956,-13.4603386,-3.2593603,3.0084171000000004
39197,14:21:48.053000,3.2009101,-17.7953358,-7.0458326,-8.467130699999998,-3.9862895,0.6798006
39198,14:21:48.066000,6.638835899999999,-10.742321,-5.9110298,-3.2662289,-3.9288681000000003,-0.45152079999999994
39199,14:21:48.072000,4.5607581,-6.282115,-5.018031099999999,-3.2662289,-3.9288681000000003,-0.45152079999999994
39200,14:21:48.085000,1.1898671,-7.4600115,-8.503838499999999,1.0305936,-2.8134291,-1.0049642
39201,14:21:48.091000,0.6392244,-7.7257565999999995,-7.1200494999999995,1.0305936,-2.8134291,-1.0049642
39202,14:21:48.101000,-0.5985246999999999,-7.0338621,-7.5031056,1.3115914,-2.3039680000000002,-1.4472302
39203,14:21:48.110000,-1.1922611,-5.7458372,-7.1463852,1.0281502,-1.8067241000000003,-1.8760573
39204,14:21:48.119000,-1.2832369,-3.6677592000000003,-6.6340475,-0.0029894,-1.0639125,-2.5052480999999998
39205,14:21:48.130000,-3.0189586,-3.7012767999999996,-7.9172845,-0.7409140000000001,-0.7939103,-2.550452
39206,14:21:48.140000,-3.1697867000000004,-2.159477,-6.693900099999999,-0.7409140000000001,-0.7939103,-2.550452
39207,14:21:48.151000,-2.2576351000000003,-6.322814900000001,-3.809011,-0.7005969,-0.6094291000000001,-2.6579642000000003
39208,14:21:48.160000,-1.3885771999999998,-3.296674,-3.7730997000000004,-0.7005969,-0.6094291000000001,-2.6579642000000003
39209,14:21:48.170000,-1.9176731,6.7729053,-5.4585452000000005,-1.2271623999999999,0.0466395,-2.0605385
39210,14:21:48.182000,-1.5633465,6.191139700000001,-7.464799900000001,-1.2271623999999999,0.0466395,-2.0605385
39211,14:21:48.189000,0.8738461,-1.3574538999999999,-7.4504356,-2.6260426,0.3765065,-1.3018445
39212,14:21:48.200000,1.8386679,-3.2679447999999995,-7.804761900000001,0.44416350000000004,1.1217616000000001,-1.3824786
39213,14:21:48.208000,1.211414,-0.82357,-5.0946422,0.44416350000000004,1.1217616000000001,-1.3824786
39214,14:21:48.218000,-1.2401432,0.5697955,-2.9926236,2.7581191,2.0453889,-1.4960995000000001
39215,14:21:48.232000,-2.1642652,2.0325898999999996,2.6335083999999997,4.3622499,2.8480651000000003,-1.7795406999999999
39216,14:21:48.238000,-2.1235654,1.1467732,7.4671940999999995,3.8882189,2.4204597000000003,-1.9285916
39217,14:21:48.248000,-0.509943,-4.0244799,9.9953623,3.8882189,2.4204597000000003,-1.9285916
39218,14:21:48.257000,1.3047838,-8.1183891,9.4686613,3.3518796,1.8450253,-1.9689088
39219,14:21:48.267000,0.435726,-7.608446099999999,7.4743767000000005,3.5180347000000003,1.5750232,-1.9066005000000001
39220,14:21:48.277000,0.5602191,-5.556703099999999,13.1005077,4.3976803,1.8132602999999998,-1.8467358
39221,14:21:48.286000,0.9959450000000001,-8.082477599999999,17.2710285,4.3182678,1.4809499,-2.4111748
39222,14:21:48.297000,-3.0500817000000002,-6.646017999999999,16.4019718,2.9499307,1.5652492,-2.0776427
39223,14:21:48.305000,-8.2955523,-5.2071648,15.6454353,2.9499307,1.5652492,-2.0776427
39224,14:21:48.315000,-14.1682758,-6.0020055999999995,17.7570305,1.5217288999999998,1.6226704,-1.1161416000000002
39225,14:21:48.326000,-18.4752598,-5.4585452000000005,18.650030100000002,1.5217288999999998,1.6226704,-1.1161416000000002
39226,14:21:48.346000,-32.203022,-19.993118300000003,20.0864887,1.2932655,1.1327569,-0.9231084
39227,14:21:48.354000,-34.3696785,-22.4662228,29.3013744,-0.013985,1.4687326,1.8318915
39228,14:21:48.365000,-30.761774100000004,-10.3185663,32.3706093,0.4771502,1.3123512,4.1336298
39229,14:21:48.373000,-26.68223,-7.907708199999999,26.799541499999997,0.4771502,1.3123512,4.1336298
39230,14:21:48.384000,-20.979488399999997,-6.3276029000000005,18.635664000000002,-4.5331621,1.3050208,5.2380733
39231,14:21:48.392000,-14.2424927,-3.952657,11.711931199999999,-4.5331621,1.3050208,5.2380733
39232,14:21:48.402000,-7.6802687999999995,-2.0924423,5.872724099999999,-8.3767233,-0.3064403,5.2441821
39233,14:21:48.413000,-1.6447458,-3.5432663,3.2392156,-9.6583166,-1.4719701,4.7200599
39234,14:21:48.422000,6.339573400000001,-11.383939699999999,2.8777068,-9.6583166,-1.4719701,4.7200599
39235,14:21:48.432000,7.4624062,-15.652618400000001,0.08379349999999999,-9.0523396,-3.7883692000000004,1.8905346
39236,14:21:48.440000,3.126693,-12.4062204,-3.6198773,-9.0523396,-3.7883692000000004,1.8905346
39237,14:21:48.450000,1.6423517,-9.8804464,-5.875118700000001,-6.3449869,-3.8677816,1.3248738000000002
39238,14:21:48.465000,-2.1044127999999995,-11.472520800000002,-6.0690403,-0.4696901,-2.8561897000000003,-0.306135
39239,14:21:48.470000,-1.3861831,-9.698494,-7.929255,-0.4696901,-2.8561897000000003,-0.306135
39240,14:21:48.481000,-0.8762401,-7.9124966,-10.273078,1.5620459,-2.3931541000000003,-1.006186
39241,14:21:48.488000,-0.5865541999999999,-4.630187,-11.673625,2.8937311,-1.6332386,-1.6133853999999999
39242,14:21:48.498000,-0.3998145,-2.6239324,-13.845072699999998,3.056221,-0.9099746,-1.9799043
39243,14:21:48.508000,-0.07661119999999999,-1.3359071000000002,-12.2290564,2.4624605,-0.3052185,-2.2682322999999998
39244,14:21:48.518000,0.6942885999999999,-0.9001811,-10.0528212,0.8546646000000001,0.050304699999999994,-2.7385982999999996
39245,14:21:48.529000,0.17955739999999998,1.5010998,-9.1646099,0.2413564,-0.014446899999999999,-2.6530771
39246,14:21:48.539000,-1.4532180000000001,0.8977870000000001,-10.8141441,0.2413564,-0.014446899999999999,-2.6530771
39247,14:21:48.548000,0.2729273,-8.618755300000002,-3.8329519999999997,0.43561140000000004,-0.1561675,-2.4832568
39248,14:21:48.557000,-2.4683158,4.723557,-4.577516999999999,0.43561140000000004,-0.1561675,-2.4832568
39249,14:21:48.567000,-4.6613107000000005,10.7255621,-10.028880099999999,-1.4214174,0.8077770000000001,-1.3018445
39250,14:21:48.578000,-1.1778966,-8.9036531,-5.7793546,-1.4214174,0.8077770000000001,-1.3018445
39251,14:21:48.586000,0.4907902,-5.2718053,-4.2303724,-1.7378453,0.40460630000000003,-1.4973211000000002
39252,14:21:48.597000,0.8187817,-2.305517,-3.0500817000000002,2.2559883999999997,1.7814953000000002,-1.7160107
39253,14:21:48.605000,-0.217863,-0.5793719,-1.2880251,2.2559883999999997,1.7814953000000002,-1.7160107
39254,14:21:48.615000,0.038305599999999995,-0.7325941999999999,3.4259553,2.7349062,3.1596062000000003,-1.2908488999999999
39255,14:21:48.627000,-0.411785,-3.3230089999999994,6.940492599999999,2.8802919,3.3123224000000002,-1.1833367
39256,14:21:48.634000,0.2154689,-5.2526526,10.337717999999999,2.8802919,3.3123224000000002,-1.1833367
39257,14:21:48.645000,1.3885771999999998,-6.1863508000000005,11.9800701,3.6548684000000002,3.3636348,-0.9316605
39258,14:21:48.653000,-0.9480630999999999,-3.9335042999999996,12.7102699,3.6548684000000002,3.3636348,-0.9316605
39259,14:21:48.663000,-1.5609524,-3.4259553,20.859781299999998,3.9517486000000006,3.3746305,-0.7813876999999999
39260,14:21:48.674000,-5.2311058,-3.8736517,21.273962,3.729394,2.7943089,-0.8070440999999999
39261,14:21:48.681000,-10.4741821,-2.9231944,20.3378677,2.8302011,1.9293246,-0.753288
39262,14:21:48.692000,-20.352233899999998,0.7110473,21.300296799999998,0.29266909999999996,0.9140674000000001,-0.27070479999999997
39263,14:21:48.701000,-30.632494,-6.339573400000001,20.318716000000002,0.29266909999999996,0.9140674000000001,-0.27070479999999997
39264,14:21:48.711000,-33.476680800000004,-14.0988483,20.309139300000002,-0.5307765999999999,0.1651473,-0.25237889999999996
39265,14:21:48.720000,-34.3816528,-19.4999332,23.2921867,-0.6199628,0.3056462,2.0090423
39266,14:21:48.730000,-37.920131700000006,-19.4041691,24.075058,-0.6199628,0.3056462,2.0090423
39267,14:21:48.742000,-36.172435799999995,-13.294429800000001,24.0559044,-0.18747060000000002,0.3044245,4.3950801
39268,14:21:48.751000,-31.1208897,-12.6312647,20.218164399999996,-0.18747060000000002,0.3044245,4.3950801
39269,14:21:48.760000,-19.7441311,-18.5135651,13.198665599999998,-4.445197599999999,-0.8549968000000001,4.913093099999999
39270,14:21:48.770000,-6.8926105,-10.2275896,9.7008877,-4.445197599999999,-0.8549968000000001,4.913093099999999
39271,14:21:48.780000,0.9193339,-6.0618582000000005,1.5968639,-6.2594657,-1.2911541000000002,4.2252598
39272,14:21:48.790000,14.141941099999999,-16.0811615,-4.9198732000000005,-8.342514,-1.8861365,4.0664349
39273,14:21:48.799000,15.4275723,-21.197349499999998,-9.9474802,-9.6167784,-3.1066442000000003,3.117151
39274,14:21:48.810000,10.5388231,-12.080621699999998,-9.0712404,-3.5557787000000003,-3.3412163,0.1886654
39275,14:21:48.819000,6.9117632,-9.1334867,-8.5349617,-3.5557787000000003,-3.3412163,0.1886654
39276,14:21:48.828000,1.6136225,-9.5907602,-11.5994081,0.5834406999999999,-2.8745155,-0.8449177
39277,14:21:48.842000,-1.6926279,-5.14013,-13.0598087,3.8747797,-1.0016043,-1.832075
39278,14:21:48.861000,-2.9064360000000002,-0.3184151,-9.506965600000001,3.8747797,-1.0016043,-1.832075
39279,14:21:48.867000,-3.7156413,3.7036707000000004,-12.339184800000002,0.7654784,-0.3088837,-2.0312171
39280,14:21:48.876000,-3.4307434999999997,-0.22743939999999999,-10.198861099999998,0.7654784,-0.3088837,-2.0312171
39281,14:21:48.885000,-0.799629,-1.1946553,-6.8638811,-0.3340781,-0.4176175999999999,-1.9163743000000002
39282,14:21:48.895000,1.3646363000000001,-2.2648175,-6.1288929,-0.1153885,-0.7132761,-2.3745229
39283,14:21:48.910000,-4.704403900000001,3.9765980000000005,-9.5500603,0.1778265,0.2824333,-1.9786825000000001
39284,14:21:48.915000,2.1187775,-11.283387199999998,-1.1994434999999999,0.8974252,0.41682359999999996,-2.0642037
39285,14:21:48.928000,-4.632581200000001,25.8059902,-2.0613191000000004,-0.4012732,0.7894511,-1.511982
39286,14:21:48.936000,-0.8331464,-20.4839077,-9.9283276,-0.4012732,0.7894511,-1.511982
39287,14:21:48.944000,-1.0869209,-2.5736562999999997,-2.0517426,-1.4788386999999998,1.2488213,-0.7911616
39288,14:21:48.957000,-1.5226468,-1.3813950000000002,4.3309245,2.1069374,1.3844333,-2.1326206
39289,14:21:48.963000,-1.1850789,-0.4907902,5.6572556,4.268177,2.2811825,-1.9347003
39290,14:21:48.974000,-0.6631654,-1.3526658,6.8590932,3.3567665,2.4522247000000004,-1.7880927
39291,14:21:48.983000,0.605707,-1.9823137999999998,8.2452765,3.3567665,2.4522247000000004,-1.7880927
39292,14:21:48.993000,-0.2250453,-2.7053316,9.3681078,3.2529194,2.378921,-1.70135
39293,14:21:49.005000,0.8546931999999999,-2.1642652,13.1938782,3.1808374,2.3092822999999996,-1.5706248999999999
39294,14:21:49.012000,-1.1132559,-2.4300102999999997,10.2347717,3.0220127,2.0820408,-1.4826603999999999
39295,14:21:49.024000,-5.3196874,-0.8570873999999999,20.2947769,2.1680238,1.3929853,-1.1075895
39296,14:21:49.032000,-5.343628400000001,-3.7371883,19.054632199999997,2.1680238,1.3929853,-1.1075895
39297,14:21:49.041000,-13.016715,-5.2981405,21.173410399999998,0.42583760000000004,0.39605409999999996,-0.6274499
39298,14:21:49.050000,-20.905269600000004,-2.8202484,22.066408199999998,0.42583760000000004,0.39605409999999996,-0.6274499
39299,14:21:49.060000,-27.7523918,-6.672352799999999,22.174142800000002,-0.013985,0.6098568,-0.2670397
39300,14:21:49.072000,-31.8654537,-12.217085800000001,19.8542595,-0.2925393,0.22989899999999996,-0.9206648999999999
39301,14:21:49.079000,-34.4439011,-17.8312473,22.9426479,-0.7115925999999999,0.392389,0.36459450000000004
39302,14:21:49.089000,-32.782394399999994,-16.8855782,21.0537033,0.5113585999999999,0.5878656999999999,3.0560644
39303,14:21:49.099000,-29.6892185,-15.042121900000001,20.6945896,0.3855205,0.7784555000000001,4.0346699
39304,14:21:49.110000,-21.048915899999997,-12.425372099999999,20.0864887,-0.6126324000000001,0.405828,4.4525013
39305,14:21:49.126000,-8.4727154,-15.5305185,13.5482054,-2.2277589,-0.0242208,4.4915967000000006
39306,14:21:49.130000,-0.7182297,-8.3697691,8.017836599999999,-3.7720248999999995,-0.0181121,4.3205542999999995
39307,14:21:49.141000,2.6071734,1.8650029,3.5408720999999996,-5.4873328,-0.0315511,4.5172529
39308,14:21:49.146000,3.5839657999999996,-7.4767703999999995,-0.028729200000000003,-5.4873328,-0.0315511,4.5172529
39309,14:21:49.156000,5.5854325,-17.1321697,-2.7580017999999997,-7.1537719,-1.4023316000000001,4.1495123
39310,14:21:49.166000,2.1427186000000003,-8.783947900000001,-3.5169311000000003,-7.4995213000000005,-2.511662,2.5918074
39311,14:21:49.175000,2.2049651000000003,-6.574194900000001,-5.0611248,-6.0981974999999995,-2.7108037,1.5753284
39312,14:21:49.188000,-0.7158355,-7.17272,-11.1804409,-3.2540116,-2.4114802,-0.6347802
39313,14:21:49.197000,-0.6535890000000001,-7.5916872,-10.694438900000002,-3.2540116,-2.4114802,-0.6347802
39314,14:21:49.206000,-1.2401432,-4.488935,-9.681735,0.6396401999999999,-1.5855911,-1.7196759
39315,14:21:49.221000,-1.3837892,-1.4029418,-11.134952499999999,0.6396401999999999,-1.5855911,-1.7196759
39316,14:21:49.225000,-2.082866,0.2130748,-11.3097219,1.6597843,-0.4530478,-1.4704431
39317,14:21:49.236000,-2.7316667999999997,-2.1714474999999998,-10.926667199999999,1.3262521,-0.40662209999999993,-1.4545606000000002
39318,14:21:49.244000,-0.6200716,-5.018031099999999,-6.0091882000000005,1.3262521,-0.40662209999999993,-1.4545606000000002
39319,14:21:49.253000,0.8427228000000001,-4.8312917,-7.8622203,1.8002831999999998,-0.2514624,-1.656146
39320,14:21:49.264000,-1.7117807,-2.1882062,-9.5500603,1.8002831999999998,-0.2514624,-1.656146
39321,14:21:49.274000,2.3079112,-11.972888000000001,-3.6342421000000003,1.8723651999999997,0.37406300000000003,-1.5034298000000001
39322,14:21:49.287000,1.2832369,5.6213441,-1.8913380000000002,2.5931857000000003,0.9226194999999999,-1.8894963
39323,14:21:49.293000,2.9231944,2.5066216,-5.9852471,2.5931857000000003,0.9226194999999999,-1.8894963
39324,14:21:49.304000,5.4346042,-13.3351297,-7.6108398,0.40384640000000005,1.4174198999999998,-1.1271372
39325,14:21:49.313000,3.9837801,-1.2425373,1.3718187,0.40384640000000005,1.4174198999999998,-1.1271372
39326,14:21:49.323000,3.3996203,0.9073634,5.5878267,4.9242458,3.1718235,-1.2578622
39327,14:21:49.333000,2.8777068,-2.1235654,6.2102919000000005,4.9242458,3.1718235,-1.2578622
39328,14:21:49.342000,0.5865541999999999,-1.3861831,8.9156237,4.4477711,3.2121406,-1.1295806000000002
39329,14:21:49.352000,-2.6215382000000003,0.7661116,13.495534900000001,4.3622499,3.0618677000000005,-0.9096693000000001
39330,14:21:49.361000,-4.2040377,3.8904104,18.4585018,4.3622499,3.0618677000000005,-0.9096693000000001
39331,14:21:49.380000,-10.2036486,6.983585799999999,20.7855663,3.3995271000000002,2.4925417999999997,-0.6469975
39332,14:21:49.390000,-11.407880800000001,-0.5530368,20.6802235,0.2694562,0.8334333,0.0102929
39333,14:21:49.401000,-18.750581699999998,-4.512876,20.8669643,-1.1758498,-0.5068039000000001,0.0493883
39334,14:21:49.410000,-29.140970199999998,-6.4305490999999995,21.657018700000002,-2.0078475,-0.9185267,0.12024860000000001
39335,14:21:49.419000,-36.1006165,-15.1809797,25.5426407,-1.6706501,-0.7523715,0.3426034
39336,14:21:49.429000,-39.3494072,-19.1503963,26.3829689,-1.6706501,-0.7523715,0.3426034
39337,14:21:49.439000,-40.4267502,-19.5693645,22.3010292,-0.9107344,-0.10852010000000001,2.4012175
39338,14:21:49.451000,-38.5378075,-17.2686348,19.2150364,-0.9107344,-0.10852010000000001,2.4012175
39339,14:21:49.458000,-25.844295499999998,-11.731083900000002,21.482248300000002,-0.7641269,0.4265974,3.1098206000000004
39340,14:21:49.470000,-11.7167187,-16.8041801,13.9959011,-1.1538587,0.15659520000000002,3.2075589
39341,14:21:49.478000,1.8410618000000003,-13.900136900000001,8.9659004,-2.7555459,-0.5520079000000001,3.0804992
39342,14:21:49.487000,4.5511813,-3.2009101,4.8815675,-3.9088585,-0.8525533000000002,2.6980977000000004
39343,14:21:49.497000,7.639568799999999,-7.1703253,-1.3454834999999998,-4.4500842,-0.9283005999999999,2.4500866
39344,14:21:49.507000,9.3250151,-15.4012365,-6.0307345,-4.6052442000000005,-2.3161852,0.8215213
39345,14:21:49.519000,5.5806441,-7.766456599999999,-8.0369892,-2.6920159,-2.3772717,-0.0373545
39346,14:21:49.526000,3.2080922000000003,-5.8942709,-7.9196786999999995,-2.6920159,-2.3772717,-0.0373545
39347,14:21:49.537000,2.0158311999999996,-7.9891076000000005,-11.7574186,0.9377421999999999,-2.0156398,-1.7037933999999997
39348,14:21:49.546000,-2.0014665000000003,-4.409930200000001,-10.9984903,0.9377421999999999,-2.0156398,-1.7037933999999997
39349,14:21:49.556000,-3.6725476,-3.2583685,-10.186889599999999,2.6408331,-1.1042296,-2.3720793999999996
39350,14:21:49.567000,-2.9902293999999996,-2.5281682,-8.9156237,2.6408331,-1.1042296,-2.3720793999999996
39351,14:21:49.574000,-2.6861787,1.5609524,-8.7145185,2.5296557,-0.9173049999999999,-2.6823987999999996
39352,14:21:49.587000,-4.1250324,7.2972131,-12.080621699999998,-0.011541599999999999,-0.049877099999999994,-2.3867402
39353,14:21:49.594000,-4.0843324999999995,0.6895005,-8.7647963,-0.011541599999999999,-0.049877099999999994,-2.3867402
39354,14:21:49.605000,-2.2552409,-2.3701577,-4.1585493,-1.4116435,-0.4493826,-2.4808133
39355,14:21:49.614000,-1.4197004999999998,-3.4259553,-4.821714900000001,-1.4116435,-0.4493826,-2.4808133
39356,14:21:49.622000,-2.133142,-2.1403244,-0.9935510000000001,-0.5332201,-0.3064403,-2.6640728
39357,14:21:49.634000,-0.20110429999999999,-4.3716245,-2.4012811000000003,0.161944,0.017318,-2.6799552
39358,14:21:49.642000,-1.6160166,17.278209699999998,-2.7556078,0.161944,0.017318,-2.6799552
39359,14:21:49.654000,3.3421616999999997,-12.2290564,-2.7747604999999997,-1.265036,0.6953779,-1.3665961000000002
39360,14:21:49.662000,3.5959363,-9.7439823,-0.8786343000000001,-1.265036,0.6953779,-1.3665961000000002
39361,14:21:49.671000,4.0005388,1.79318,7.6036577,4.9108067,1.9598677,-2.2731194
39362,14:21:49.683000,5.063519,1.9871020000000001,10.1150665,4.8362813,2.3764775,-1.8577313000000002
39363,14:21:49.689000,4.2830424,0.1867397,8.9180183,4.8362813,2.3764775,-1.8577313000000002
39364,14:21:49.700000,2.8394009999999996,-0.3854499,10.1964674,3.6096644,2.4546683,-0.8840130999999999
39365,14:21:49.709000,-0.8786343000000001,-1.2664783000000002,11.5012503,3.6096644,2.4546683,-0.8840130999999999
39366,14:21:49.719000,-6.171986599999999,-3.0500817000000002,17.1034412,3.4471745000000005,2.3972467999999996,-0.46251640000000005
39367,14:21:49.731000,-13.837890599999998,-4.4314770999999995,16.7922077,2.9413786,2.0319498,-0.15952750000000002
39368,14:21:49.739000,-22.573957399999998,-6.2102919000000005,22.0855598,2.1606933999999995,1.5970142,0.1556787
39369,14:21:49.750000,-23.153327899999997,-5.6213441,25.212253600000004,0.8094606,0.7454688,0.3548206
39370,14:21:49.759000,-29.069145199999998,-7.888555499999999,20.4049034,0.8094606,0.7454688,0.3548206
39371,14:21:49.768000,-35.2866211,-10.4263,16.4163342,-0.8691957,0.8077770000000001,1.1403927
39372,14:21:49.782000,-36.196380600000005,-12.7270288,20.534183499999997,-1.6694285,1.4919455,3.7548937999999996
39373,14:21:49.788000,-32.344272600000004,-12.6312647,21.044128399999998,-1.1636323999999998,1.1376441000000002,4.1262994
39374,14:21:49.800000,-22.6577492,-12.2984848,20.4551792,-1.3713263999999998,0.9189543,4.305893900000001
39375,14:21:49.806000,-15.1618271,-12.3104563,14.0844831,-1.3713263999999998,0.9189543,4.305893900000001
39376,14:21:49.815000,-7.062591599999999,-14.0988483,14.304739999999999,-2.3316058999999996,0.7014865,4.2961197
39377,14:21:49.826000,3.2487918999999996,-12.4636784,12.7270288,-3.075639,0.22745549999999998,4.0383347999999994
39378,14:21:49.835000,9.068845699999999,-11.994435300000001,8.0010777,-3.4458230000000003,-0.5556731,3.3834879
39379,14:21:49.848000,10.464606300000002,-5.4250278,4.6565218,-3.2026988999999997,-0.6986154,1.5887673999999998
39380,14:21:49.856000,7.069773700000001,-4.1537614000000005,-0.1604046,-3.2026988999999997,-0.6986154,1.5887673999999998
39381,14:21:49.867000,5.5471268,-10.847661,-5.082671599999999,-3.3688540000000002,-1.5978084,1.0402108
39382,14:21:49.875000,4.1346083,-11.053553599999999,-5.2406821,-1.720741,-1.9007971000000001,0.028618900000000003
39383,14:21:49.894000,-1.4843413,-6.112133999999999,-7.357065700000001,-1.720741,-1.9007971000000001,0.028618900000000003
39384,14:21:49.904000,-6.9237337,-2.7963072999999996,-8.1159954,-0.1031713,-1.7456377,-1.1576803999999998
39385,14:21:49.914000,-8.070507000000001,-2.8034897,-7.9124966,-0.8325437,-1.6674468999999998,-1.5217557
39386,14:21:49.923000,-5.381934200000001,-4.1800966,-6.9357042,-0.8325437,-1.6674468999999998,-1.5217557
39387,14:21:49.933000,-3.58636,-2.2145412,-9.049693099999999,-1.2931358,-1.5660433999999999,-1.9628
39388,14:21:49.943000,-2.422828,-0.28968590000000005,-9.423173,-1.2931358,-1.5660433999999999,-1.9628
39389,14:21:49.952000,0.32320340000000003,-0.7541412,-10.2347717,-1.4934994,-1.0223737,-1.709902
39390,14:21:49.965000,1.1946553,3.8904104,-8.326675400000001,-1.129424,-0.3589746,-1.3861438
39391,14:21:49.971000,4.515270200000001,-3.3254032,-7.1511731,-1.129424,-0.3589746,-1.3861438
39392,14:21:49.981000,2.2552409,0.30165640000000005,-5.595008900000001,1.0024939,0.0991739,-1.4973211000000002
39393,14:21:49.990000,5.736260400000001,-7.6515393,-0.36390300000000003,1.0024939,0.0991739,-1.4973211000000002
39394,14:21:49.999000,3.9454749,-1.9655551,0.28489770000000003,2.3549482999999998,0.211573,-1.6463721999999998
39395,14:21:50.009000,2.8417952,9.181368800000001,1.8937321,2.9658132,0.7014865,-1.8223011000000002
39396,14:21:50.019000,2.592809,-3.5360837,-0.2633509,0.5797755,1.9012248999999999,-0.46740329999999997
39397,14:21:50.029000,0.7613234,-9.2699499,0.5865541999999999,0.5797755,1.9012248999999999,-0.46740329999999997
39398,14:21:50.039000,-2.3701577,-4.7666507000000005,6.1025577,2.4221435000000002,2.1406837000000003,-0.7887181999999999
39399,14:21:50.049000,-4.4961176,-0.08379349999999999,14.960722899999999,5.2846556,2.970238,-1.2822968000000001
39400,14:21:50.059000,-6.7082644,0.35432659999999994,17.6852074,5.2846556,2.970238,-1.2822968000000001
39401,14:21:50.068000,-10.7279558,-0.6799241,16.3349361,3.8686712,2.4974287,-1.0159597
39402,14:21:50.081000,-21.5109787,3.2799153,6.909369,0.9401857,1.6055663,0.2937342
39403,14:21:50.088000,-25.7245922,0.8929988000000001,18.0443211,0.9401857,1.6055663,0.2937342
39404,14:21:50.100000,-33.7065163,-0.33517379999999997,17.7426662,-0.4244861,1.0790008999999998,0.9937851000000001
39405,14:21:50.107000,-42.121772799999995,-6.643623799999999,24.0319633,-0.4244861,1.0790008999999998,0.9937851000000001
39406,14:21:50.128000,-40.2112846,-11.3240871,26.3279037,-2.7543242,0.32519390000000004,3.9088316
39407,14:21:50.131000,-36.794902799999996,-11.4174566,22.901948899999997,-2.7543242,0.32519390000000004,3.9088316
39408,14:21:50.136000,-32.013889299999995,-9.5309067,18.3531609,-4.0652394,0.4156018,4.6491995
39409,14:21:50.146000,-23.6536961,-11.041583099999999,16.6318035,-4.9045677,0.12483019999999999,4.5991087
39410,14:21:50.155000,-10.6848631,-13.3351297,17.9102516,-5.384707499999999,-0.7291585999999999,4.2069335
39411,14:21:50.163000,1.5992579,-12.3679142,12.5187416,-5.511767400000001,-1.4646397,3.6522684
39412,14:21:50.173000,5.2382879,-14.8338356,5.8679361,-5.511767400000001,-1.4646397,3.6522684
39413,14:21:50.183000,9.648218199999999,-16.825725600000002,9.2699499,-5.2833037,-1.8067241000000003,3.3016322
39414,14:21:50.194000,8.9826584,-13.1268435,4.156155600000001,-4.015148600000001,-2.4408016,2.3633439999999997
39415,14:21:50.204000,6.732205400000001,-11.2115641,-1.2497194999999999,-1.9088874,-2.3015244,1.1012973999999998
39416,14:21:50.214000,1.0845268,-6.835152099999999,-7.2541189,-1.9846346000000001,-1.9142363000000002,0.4110202
39417,14:21:50.226000,-3.126693,-7.3283366999999995,-10.6896505,-2.1031425,-2.0266354,0.0860402
39418,14:21:50.232000,-5.1808295,-10.4765759,-13.203454999999998,-0.7531313000000001,-2.186682,-1.0733811000000002
39419,14:21:50.242000,-5.796113,-10.4215117,-12.8539162,-0.7531313000000001,-2.186682,-1.0733811000000002
39420,14:21:50.251000,-5.4106631,-10.3975706,-12.102169,1.5070682,-2.1280389,-2.3183234
39421,14:21:50.261000,-4.5511813,-9.3561382,-12.798852,3.6169949,-1.6540078999999999,-3.1564297999999997
39422,14:21:50.271000,-4.5272403,-3.7491589,-12.569018400000001,4.590713500000001,-0.8647706000000001,-3.602361
39423,14:21:50.281000,-3.0883875,-2.0924423,-9.0568762,4.2498507000000005,-0.052320500000000006,-3.6768866
39424,14:21:50.293000,0.5410663,-4.400353400000001,-10.0815496,2.8680747,0.20424260000000002,-3.5522702000000006
39425,14:21:50.300000,2.9184062,-0.18195150000000002,-7.7401209,1.2492832,-0.05109880000000001,-3.4410927000000004
39426,14:21:50.313000,2.5521092,5.5543089000000005,-11.3599987,-0.8472044,0.12238679999999999,-2.708055
39427,14:21:50.319000,3.1171165000000003,0.3950263,-8.321887,-0.8472044,0.12238679999999999,-2.708055
39428,14:21:50.329000,4.115455600000001,-3.6940942000000003,-4.0149035,-0.7335837,-0.0559857,-2.4209485
39429,14:21:50.340000,2.3366406000000004,-0.6511949,-3.7012767999999996,-0.7335837,-0.0559857,-2.4209485
39430,14:21:50.348000,-0.193922,-0.7732939,3.5552367999999994,0.40506820000000004,0.39483240000000003,-2.4966958
39431,14:21:50.360000,-0.5410663,-1.8099386999999998,3.5432663,0.4954762,0.9629366,-2.0226648000000003
39432,14:21:50.378000,-3.1434517000000004,-10.048031800000002,3.1362693,0.0886403,2.1858877999999997,-0.734962
39433,14:21:50.387000,-5.2837758,-5.669226200000001,9.7296171,0.0886403,2.1858877999999997,-0.734962
39434,14:21:50.397000,-11.2809935,-2.056531,18.0898094,3.1087554,2.256748,-1.3103966
39435,14:21:50.410000,-16.615045499999997,-0.8666638000000001,24.5275421,5.311533900000001,2.2970650000000004,-1.8235229
39436,14:21:50.416000,-18.776916500000002,-4.417111900000001,24.5251484,5.311533900000001,2.2970650000000004,-1.8235229
39437,14:21:50.429000,-23.086294199999998,4.6684923,17.9318008,1.9261214,2.3715906,0.4036898
39438,14:21:50.436000,-25.3008366,-9.5500603,21.664199800000002,1.9261214,2.3715906,0.4036898
39439,14:21:50.447000,-31.104129800000003,-9.2244616,23.2275467,0.8998686,2.7442181,2.4561954
39440,14:21:50.457000,-35.6289749,-5.3412347,19.0187206,1.1710924999999999,3.1046283,3.9735832
39441,14:21:50.465000,-33.182209,-4.5439997000000005,23.854799300000003,1.1710924999999999,3.1046283,3.9735832
39442,14:21:50.475000,-21.860515600000003,-4.6206107,24.2833443,1.0525848,2.4253466,4.349875900000001
39443,14:21:50.484000,-15.2073154,-1.4173065,17.4577675,1.0525848,2.4253466,4.349875900000001
39444,14:21:50.494000,-9.3321972,1.2185962,11.2450819,-0.5686501,2.2909565,4.3022285
39445,14:21:50.507000,-5.8655419,1.6782633000000002,11.144530300000001,-2.2778497000000004,1.886564,4.3217764
39446,14:21:50.513000,0.45248469999999996,-2.2217238,13.734945300000001,-3.5020225,0.600083,4.2215943
39447,14:21:50.529000,7.565352000000001,-8.4583511,13.651150699999999,-3.5728828999999998,-2.8170943,2.8618095
39448,14:21:50.533000,8.4894743,-13.624815900000002,7.766456599999999,-3.5728828999999998,-2.8170943,2.8618095
39449,14:21:50.542000,-0.2250453,-13.064597099999999,6.2438097,-2.2106545,-2.6814823,1.3089913
39450,14:21:50.552000,0.0359115,-8.5253859,6.885428,-2.2106545,-2.6814823,1.3089913
39451,14:21:50.562000,5.5543089000000005,-11.1205893,-0.4381201,-1.4653996,-2.8647418,0.9498028000000001
39452,14:21:50.573000,0.5362781,-3.6510005,-4.2519193,-1.9711956999999998,-1.5232828,0.35604240000000004
39453,14:21:50.581000,-6.140863400000001,2.4515569,-11.654473300000001,-1.9711956999999998,-1.5232828,0.35604240000000004
39454,14:21:50.591000,-9.9786043,-6.023552400000001,-21.127922100000003,-5.7658868,-1.9472228999999999,0.8349603000000001
39455,14:21:50.600000,-5.365175700000001,-10.263501199999999,-18.9038048,-5.7658868,-1.9472228999999999,0.8349603000000001
39456,14:21:50.611000,-5.1233716,-10.5268517,-13.713398000000002,-5.2930779,-2.5312097000000002,-0.27437
39457,14:21:50.623000,-1.9607668999999999,-8.8677416,-10.9625778,-1.8868964,-2.6863692,-2.6652944
39458,14:21:50.631000,-1.8362738,-5.4250278,-13.337524400000001,-1.8868964,-2.6863692,-2.6652944
39459,14:21:50.640000,-1.2425373,-4.0579977,-13.0382624,-1.8502444,-1.4438703000000002,-2.9585097
39460,14:21:50.650000,1.6878396,-3.4786254999999997,-11.1612883,-1.8502444,-1.4438703000000002,-2.9585097
39461,14:21:50.660000,2.1403244,-1.4604002,-9.7559519,-1.6657633,-1.2410633999999998,-3.245616
39462,14:21:50.671000,2.6287205,-0.169981,-10.3832064,-1.1672976000000002,-0.8733226999999999,-3.3164762999999997
39463,14:21:50.679000,0.3782676,0.0119705,-8.582843800000001,0.08497510000000001,0.0918435,-2.8619928
39464,14:21:50.693000,0.0311233,-3.1219049,-4.2782545,1.3238087,0.3422981,-2.8387802000000004
39465,14:21:50.698000,-0.4836079000000001,-1.9655551,-0.6655594,1.3238087,0.3422981,-2.8387802000000004
39466,14:21:50.708000,-3.0045941000000003,-3.0452936,4.7403154,2.7984362000000003,0.6465086999999999,-3.1112257999999997
39467,14:21:50.718000,-2.8872831000000003,-5.3747516,7.5461993000000005,2.8534141,0.9299499,-2.7495937
39468,14:21:50.728000,-6.966827400000001,10.9362431,6.1743803,3.0097954,1.0655620000000001,-3.1393256000000003
39469,14:21:50.739000,-6.1815629,-14.3741693,3.4235613,0.1008576,1.5224886,-2.0422125
39470,14:21:50.747000,-12.45889,-18.039533600000002,6.452096,0.1008576,1.5224886,-2.0422125
39471,14:21:50.756000,-20.981882100000004,-11.087071400000001,14.3430462,3.1466291,1.8132602999999998,-2.6261992000000003
39472,14:21:50.767000,-22.9929237,-4.675674900000001,25.6120682,6.9743075,3.0239942,-2.5431216
39473,14:21:50.775000,-27.905614899999996,1.6255928999999998,25.212253600000004,8.2058105,3.8877571000000004,-2.2816715
39474,14:21:50.788000,-22.1382313,-10.9601841,24.0870285,3.5094826,4.4815178,0.41835059999999996
39475,14:21:50.795000,-24.1827927,-11.7095366,22.0616207,3.5094826,4.4815178,0.41835059999999996
39476,14:21:50.807000,-27.414823499999997,-6.792058,26.445213300000002,1.8186091,5.3794889,3.2490978
39477,14:21:50.815000,-27.3406086,-0.7900524999999999,26.2895985,1.8186091,5.3794889,3.2490978
39478,14:21:50.824000,-29.4593868,4.4027476,29.5766964,-0.189914,4.8920188,4.694403599999999
39479,14:21:50.838000,-13.016715,4.318954,29.0739365,-0.189914,4.8920188,4.694403599999999
39480,14:21:50.845000,-2.4012811000000003,3.9335042999999996,16.7395382,-4.0737915000000005,2.3740342,4.6772995
39481,14:21:50.855000,3.0357172,8.156694400000001,10.8261147,-5.3993683,1.4907238,4.864224
39482,14:21:50.863000,3.4331373999999997,4.828897,10.993701,-5.3993683,1.4907238,4.864224
39483,14:21:50.882000,2.8824949,-14.5896378,11.060735699999999,-6.2313662,0.3887238,5.3016033
39484,14:21:50.892000,-0.5913424,-6.9811921,5.7458372,-4.0444703,-2.0351875,2.5759249
39485,14:21:50.902000,-3.1290869999999997,-6.5023718,9.542878199999999,-2.2802932,-1.9276752000000001,1.5423417
39486,14:21:50.911000,-4.2782545,-1.7405096999999998,5.9373651,-1.142863,-1.7383072,1.2149183000000001
39487,14:21:50.923000,-5.9996114,-8.6163607,-0.42854369999999997,-2.3963575,-2.7254646,0.7030135000000001
39488,14:21:50.931000,-1.0725563,-9.1406689,-1.3311188,-2.3963575,-2.7254646,0.7030135000000001
39489,14:21:50.940000,-13.2633066,-1.5968639,-11.144530300000001,-2.2998409,-2.4896708,-0.5211594
39490,14:21:50.953000,-9.9379044,-6.1456513,-12.217085800000001,-4.6858783,-2.2624292,-0.5553678000000001
39491,14:21:50.960000,-5.2382879,-13.9360495,-19.0570259,-4.6858783,-2.2624292,-0.5553678000000001
39492,14:21:50.971000,-1.3957596,-15.8417511,-16.4187298,-1.8526878,-2.7877728999999998,-2.3940706
39493,14:21:50.980000,1.333513,-11.0774946,-12.0949869,-1.8526878,-2.7877728999999998,-2.3940706
39494,14:21:50.989000,0.4500906,-6.5095544,-13.485958100000001,0.7825826,-2.4970012,-3.0990086
39495,14:21:51.001000,1.6878396,-5.0563364,-10.3496885,1.5962543,-1.9069058999999997,-3.12833
39496,14:21:51.008000,3.9909625,-4.613428599999999,-8.130359599999998,1.3958906999999998,-1.5599346,-3.1967467999999997
39497,14:21:51.023000,5.5495209999999995,-1.2999957,-10.9913073,1.15521,-1.4450922,-3.3971105
39498,14:21:51.027000,1.9224613000000002,3.4379258000000004,-11.7262964,1.1466579,-0.9209700999999999,-3.3934453
39499,14:21:51.037000,0.7852644,1.1946553,-9.870868699999999,0.7544827,-0.1806021,-2.9120839
39500,14:21:51.047000,2.7292726000000003,-4.7498922,-0.2394099,0.6481923,-0.07308989999999999,-2.6090949
39501,14:21:51.056000,-6.557436500000001,5.456151,-4.2447371,1.4557555,0.19202539999999998,-2.7300463
39502,14:21:51.069000,1.8697912,-7.0937147,3.9646275,1.1820881,0.36184570000000005,-2.433166
39503,14:21:51.076000,-11.5946198,16.9406414,-2.1786296000000003,1.1820881,0.36184570000000005,-2.433166
39504,14:21:51.087000,-7.3594593999999995,-15.485031099999999,2.8106720000000003,-0.5943065,1.0826662,-1.6989064999999999
39505,14:21:51.095000,-18.0060158,-16.6413803,6.8734574,-0.5943065,1.0826662,-1.6989064999999999
39506,14:21:51.105000,-25.5689735,-5.738654599999999,19.9189014,6.672540700000001,2.8468435000000003,-2.9511792999999997
39507,14:21:51.114000,-26.411697399999998,-3.2368214,24.161243399999996,6.672540700000001,2.8468435000000003,-2.9511792999999997
39508,14:21:51.123000,-26.921640399999998,-5.331657900000001,23.0958691,7.2589707,3.7277101999999998,-2.6921725
39509,14:21:51.138000,-28.5185032,-9.2053099,20.5748844,4.7495384000000005,4.7796197,-0.785053
39510,14:21:51.143000,-29.217582699999998,-7.788003,22.0161324,4.6652389,5.401479699999999,0.7482175
39511,14:21:51.154000,-29.102664899999997,0.9193339,26.0477943,4.6652389,5.401479699999999,0.7482175
39512,14:21:51.167000,-25.0925484,10.6226158,26.318328899999997,4.881485,5.7533379,1.4885856000000002
39513,14:21:51.173000,-21.8868504,16.1601677,27.9798317,3.5180347000000003,5.6042871,2.249723
39514,14:21:51.184000,-12.1308985,16.6581383,26.351844800000002,0.0080061,4.669663900000001,3.3688271
39515,14:21:51.192000,-3.0237467000000002,10.435875900000001,19.4688129,-4.1422086,2.6819097999999997,4.7163949
39516,14:21:51.202000,3.3373737,4.0316625,18.1640282,-9.649764999999999,-0.1256243,5.4311066
39517,14:21:51.212000,3.1578162,-2.6071734,16.5623741,-9.649764999999999,-0.1256243,5.4311066
39518,14:21:51.221000,0.1963161,-11.838817599999999,15.5712175,-7.5471687,-1.4182141000000001,4.3107805
39519,14:21:51.234000,0.459667,-10.6441631,19.0235081,-4.5612617,-2.1304824,2.6773283
39520,14:21:51.240000,-0.8594815,-3.7443705,11.103830300000002,-4.5612617,-2.1304824,2.6773283
39521,14:21:51.251000,-6.4999781,-6.5191312,6.6627769,-3.1782644,-2.5629747000000003,1.6315278999999998
39522,14:21:51.260000,-9.8397465,-14.141941099999999,0.3423561,-3.1782644,-2.5629747000000003,1.6315278999999998
39523,14:21:51.270000,-1.7093865000000001,-16.5815277,3.8640754,-2.3902487999999997,-3.8665599999999998,0.0445014
39524,14:21:51.282000,-2.6047795,-5.037183799999999,0.0119705,-2.3902487999999997,-3.8665599999999998,0.0445014
39525,14:21:51.289000,-13.627209699999998,-4.6445513,-9.528513,-2.3523753,-3.5122583,-0.9133344999999999
39526,14:21:51.301000,-5.1281595,-8.5445375,-22.035284,-7.245401400000001,-3.5073714,-0.9377690999999999
39527,14:21:51.309000,-6.811211099999999,-14.3502283,-29.5264206,-7.245401400000001,-3.5073714,-0.9377690999999999
39528,14:21:51.318000,-5.2382879,-16.366058300000002,-23.3927383,-4.1507607,-2.208673,-3.4911835
39529,14:21:51.330000,-0.7373824000000001,-8.989841499999999,-19.2174301,-4.1507607,-2.208673,-3.4911835
39530,14:21:51.338000,-3.6150888999999995,-0.5697955,-18.9612617,-1.7402886999999998,-1.8971319,-4.115487600000001
39531,14:21:51.353000,-2.8657362,-1.6567163,-16.6365929,-1.4849473,-0.6717373999999999,-4.2840862
39532,14:21:51.358000,0.40220859999999997,4.1298203,-12.6049299,-1.8258098000000003,-0.5055822,-4.3842678
39533,14:21:51.376000,-0.8259639999999999,-5.0515485,-12.8994036,-1.8258098000000003,-0.5055822,-4.3842678
39534,14:21:51.385000,-0.5386721999999999,5.0563364,-3.7778878,-1.6327764999999999,0.2323424,-4.561418499999999
39535,14:21:51.395000,-5.1568885,6.5311017,-8.520597500000001,0.2132567,0.44003640000000005,-4.726352200000001
39536,14:21:51.406000,0.7972349,-5.4753041,-0.7397765000000001,0.2609041,0.9250630999999999,-4.0776138
39537,14:21:51.416000,-9.7080698,16.2152309,5.2741995,0.5138020999999999,1.0777793,-3.7770684
39538,14:21:51.425000,-6.562224400000001,-11.920218499999999,0.6751359,0.5138020999999999,1.0777793,-3.7770684
39539,14:21:51.434000,-12.671964599999999,-7.2349663,8.6450911,0.7410438,1.4907238,-3.3421326000000002
39540,14:21:51.445000,-16.4570351,-5.4106631,20.610796,3.9786267,2.6929054,-3.6182434999999997
39541,14:21:51.454000,-19.1934891,-10.6321926,20.239709899999998,6.7299619,3.8987525,-2.7728066000000005
39542,14:21:51.464000,-25.1093082,-3.3206151,20.6443138,8.0787506,5.191342400000001,-1.6390418000000002
39543,14:21:51.474000,-26.1459522,-11.316905,23.6920013,8.9535093,6.4301763,-0.9206648999999999
39544,14:21:51.483000,-30.7019215,-6.9141569,31.377058,7.0268421000000005,7.484528500000001,1.7097186000000002
39545,14:21:51.493000,-32.6818428,-0.8355404000000001,31.4177589,7.0268421000000005,7.484528500000001,1.7097186000000002
39546,14:21:51.502000,-30.9509087,4.2638898,42.490463299999995,5.0146537,7.0862446,3.1501377
39547,14:21:51.514000,-21.393665300000002,6.3563317999999995,32.4448242,-2.6443686,4.2139587,5.2918296
39548,14:21:51.522000,-13.318370800000002,8.649879499999999,17.5128326,-2.6443686,4.2139587,5.2918296
39549,14:21:51.532000,-7.893343400000001,1.3406953000000001,10.5675516,-9.9197674,1.4907238,6.2191219
39550,14:21:51.541000,2.6861787,-7.811944,17.1800518,-9.9197674,1.4907238,6.2191219
39551,14:21:51.550000,11.6448956,-12.990380300000002,18.0945988,-9.864789,-0.1793804,5.781743
39552,14:21:51.566000,2.2887584999999997,-14.2185516,12.501983599999999,-5.2466520999999995,-1.3143671000000001,3.3908184
39553,14:21:51.570000,-0.1053403,-15.599947,11.1421356,-5.2466520999999995,-1.3143671000000001,3.3908184
39554,14:21:51.582000,-2.6478732000000003,-11.5012503,10.3808117,-0.4367034000000001,-1.7541897000000002,1.4519336999999999
39555,14:21:51.590000,0.6009188,-9.593154,10.5603704,-0.4367034000000001,-1.7541897000000002,1.4519336999999999
39556,14:21:51.601000,0.23462170000000002,-1.9775256,4.8408675,0.26456929999999995,-2.0620654,0.750661
39557,14:21:51.608000,-13.4668055,1.3143603000000001,-8.2045765,-1.2308276000000002,-1.6833293000000003,0.40246809999999994
39558,14:21:51.617000,-9.243615199999999,-7.900525999999999,-14.920023,-4.3645635,-1.6112473,0.9119292
39559,14:21:51.629000,-6.0546755999999995,-15.8465405,-14.055753699999999,-5.510545700000001,-2.7596731,0.2179869
39560,14:21:51.638000,-4.0196919,-12.1524448,-12.628871,-4.6809912,-3.2666907000000003,-1.4887691
39561,14:21:51.648000,-2.66942,-4.2734666,-15.3916607,-1.5924593999999999,-2.7279081,-2.5797734
39562,14:21:51.658000,-4.1585493,-3.0907815,-14.747648199999999,-1.5924593999999999,-2.7279081,-2.5797734
39563,14:21:51.668000,0.23462170000000002,-6.3683023,-12.372701600000001,-2.5954992999999997,-2.3479502,-2.7483721
39564,14:21:51.680000,3.8114052000000003,-1.9272496,-13.684667600000001,-1.4482954,-2.0559568,-3.4496447999999997
39565,14:21:51.687000,1.5777111000000001,0.7278060000000001,-18.0108032,-1.4482954,-2.0559568,-3.4496447999999997
39566,14:21:51.696000,3.3397677000000003,-2.7005434,-13.0885382,0.6310880999999999,-0.6436376,-3.5718178999999997
39567,14:21:51.706000,2.3749461,0.9720040999999999,-9.559636099999999,0.6310880999999999,-0.6436376,-3.5718178999999997
39568,14:21:51.715000,0.5051548,3.6653652,-13.8714085,2.0153077,-0.3125489,-3.7709596
39569,14:21:51.728000,-0.9289103000000001,-2.8465835999999998,-0.09815800000000001,2.7874404999999998,0.39605409999999996,-3.5388309999999996
39570,14:21:51.735000,-9.8732634,15.7100763,5.08746,2.5870769,0.8370985000000001,-3.1588732999999998
39571,14:21:51.745000,-1.9057026000000001,5.7171078,-4.5272403,-1.1868453,1.2133911,-1.7685452000000002
39572,14:21:51.754000,-2.1451125,-17.8360367,-4.7403154,-1.1868453,1.2133911,-1.7685452000000002
39573,14:21:51.765000,-6.3491502,-3.2655509,7.4959229999999994,4.3182678,2.7882004,-2.9120839
39574,14:21:51.774000,-10.909908300000001,-2.0996243999999997,14.6375198,4.3182678,2.7882004,-2.9120839
39575,14:21:51.783000,-17.3979168,-6.2198687,14.773983,6.0274673,3.4674818999999997,-2.4820352000000003
39576,14:21:51.795000,-24.6664009,-2.4467689999999997,19.059419600000002,6.5124941,4.988535400000001,-1.1540152
39577,14:21:51.803000,-28.0301075,-7.5557756,19.8853836,6.5124941,4.988535400000001,-1.1540152
39578,14:21:51.813000,-30.941331899999994,-6.4353375,27.7643642,5.085514099999999,4.4974003,0.6956831
39579,14:21:51.822000,-40.65179439999999,-4.8121386,23.100658399999997,5.085514099999999,4.4974003,0.6956831
39580,14:21:51.832000,-35.743896500000005,2.6502673999999997,40.670947999999996,3.6951857000000006,4.2713799,2.8422617999999997
39581,14:21:51.845000,-31.448881099999998,3.7323998999999994,30.9963951,-1.2173885,2.9262557,5.3040465999999995
39582,14:21:51.851000,-25.5378513,2.5329566000000003,20.996246300000003,-1.2173885,2.9262557,5.3040465999999995
39583,14:21:51.862000,-17.876735699999998,-1.4580061000000002,18.7410049,-5.145248400000001,2.5120895,5.9393458
39584,14:21:51.870000,-6.4473081,-4.6780691,16.2295952,-7.778075200000001,1.435746,5.8868117
39585,14:21:51.880000,5.082671599999999,-12.985591900000001,18.762552300000003,-8.591747300000002,-0.4163959,5.2612863
39586,14:21:51.893000,8.580450099999998,-15.008605,8.5660849,-7.999208500000001,-1.7554113999999998,4.4561663000000005
39587,14:21:51.899000,2.5018332,-20.4384212,6.8830342,-6.0236721,-2.0547352,3.6388295
39588,14:21:51.911000,-0.7062590999999999,-13.7110043,8.467927,-0.7739007,-2.4041498,1.4103948999999998
39589,14:21:51.919000,4.3788066,-9.2819214,6.8950043,-0.7739007,-2.4041498,1.4103948999999998
39590,14:21:51.929000,-1.0174919,1.2736604999999999,2.2169354,-0.0127633,-1.8714756999999997,0.034727499999999994
39591,14:21:51.943000,-7.4624062,-3.2559742999999997,-4.9557843,-0.0127633,-1.8714756999999997,0.034727499999999994
39592,14:21:51.948000,-6.394638099999999,-8.7288837,-13.8738022,-3.2515681,-1.9753227,1.2381309999999999
39593,14:21:51.963000,-5.0323954,-15.631071100000002,-14.5728788,-3.6229739000000003,-3.6833004999999996,-0.9121128000000001
39594,14:21:51.967000,-3.6438181000000003,-11.1708651,-13.2752781,-3.6229739000000003,-3.6833004999999996,-0.9121128000000001
39595,14:21:51.978000,-3.2583685,-5.2670169,-14.843412400000002,-1.5643597,-2.7291298,-2.0910816000000003
39596,14:21:51.987000,-3.153028,-7.2469368,-15.303078699999999,-1.5643597,-2.7291298,-2.0910816000000003
39597,14:21:51.996000,2.693361,-5.4753041,-14.3191051,-2.1397943,-2.4310278999999997,-2.2266936
39598,14:21:52.010000,1.8817616999999998,-0.6751359,-21.654624899999998,-1.3212355,-1.441427,-3.0611347999999996
39599,14:21:52.017000,0.9121516,-2.8968594,-20.187040300000003,-1.3212355,-1.441427,-3.0611347999999996
39600,14:21:52.034000,6.820787400000001,-1.6112285,-3.6246655,-0.5649850000000001,-0.6277550999999999,-2.9328532000000003
39601,14:21:52.045000,-7.0769558,3.5360837,-13.430893900000001,2.4282522,0.7882293,-2.8192325
39602,14:21:52.054000,7.2469368,-8.1159954,1.3598481000000002,2.4282522,0.7882293,-2.8192325
39603,14:21:52.063000,-7.3163662,20.6945896,-5.9708824,2.8644093999999996,0.9213978999999999,-3.1442125
39604,14:21:52.075000,1.8051505,-23.1054478,-4.8193212,0.5357932,1.8474686000000002,-2.4087312
39605,14:21:52.083000,-5.1209769,1.2425373,9.7846823,0.5357932,1.8474686000000002,-2.4087312
39606,14:21:52.092000,-9.576395,1.235355,15.5855827,6.2253875999999995,3.1791537,-2.7410417000000002
39607,14:21:52.103000,-16.2008667,-5.3244753,13.220212900000002,6.2253875999999995,3.1791537,-2.7410417000000002
39608,14:21:52.113000,-23.138963699999998,7.1272321,16.9717655,6.8167043000000005,3.9598391000000004,-2.4050662999999997
39609,14:21:52.125000,-25.0374832,-1.7405096999999998,22.9953175,6.9840813,3.8743178999999994,-2.73982
39610,14:21:52.132000,-28.511321999999996,-2.8417952,27.3046951,6.9840813,3.8743178999999994,-2.73982
39611,14:21:52.142000,-38.183479299999995,0.08379349999999999,33.5078049,2.6713762,3.7435927,1.328539
39612,14:21:52.151000,-32.0857124,3.3397677000000003,38.322338099999996,2.6713762,3.7435927,1.328539
39613,14:21:52.161000,-27.034164399999998,2.2336943,31.6930809,0.7459307,2.8346259999999996,3.1721287
39614,14:21:52.171000,-22.5308647,2.4994389999999997,21.460702899999998,-2.5906124,2.6367059,4.4647182999999995
39615,14:21:52.180000,-15.0229702,-2.1858122000000004,25.999912300000002,-4.974206400000001,2.347156,5.1452217000000005
39616,14:21:52.193000,-3.9550512,-5.8583593,24.324043300000003,-5.7170177,-0.030329400000000003,4.7945852
39617,14:21:52.200000,1.6902337,-7.7736387,16.0835552,-5.7170177,-0.030329400000000003,4.7945852
39618,14:21:52.210000,0.8259639999999999,-10.3975706,12.2410269,-3.5851002,-1.1188903000000001,3.8330843
39619,14:21:52.220000,-1.551376,-11.2642345,11.271416699999998,-3.5851002,-1.1188903000000001,3.8330843
39620,14:21:52.229000,4.115455600000001,-13.543417000000002,8.9659004,-0.8105526,-2.7352386,2.142211
39621,14:21:52.240000,0.6033128000000001,1.8961263,5.4178457,-0.6859361999999999,-2.1268172,1.3151
39622,14:21:52.248000,-3.4714432,-7.5797167000000005,-10.0647907,-0.6859361999999999,-2.1268172,1.3151
39623,14:21:52.260000,-8.0250187,-11.3264809,-14.927206,-4.839816099999999,-2.8158727000000003,2.2277318999999998
39624,14:21:52.267000,-3.9167454,-12.6145058,-12.0662584,-4.839816099999999,-2.8158727000000003,2.2277318999999998
39625,14:21:52.277000,-1.1156501,-13.145996100000001,-14.496268300000002,-3.5386746,-3.970407,0.7494392
39626,14:21:52.289000,-2.039772,-6.4880075,-14.666249300000002,-1.7402886999999998,-3.3803115,-1.0855983
39627,14:21:52.296000,-2.1858122000000004,-6.2055039,-15.5305185,-1.7402886999999998,-3.3803115,-1.0855983
39628,14:21:52.308000,1.6064403,-8.9754763,-17.1201992,-2.4427831,-2.9392672,-1.3568223
39629,14:21:52.316000,1.7812095000000001,-4.9916959,-20.512638100000004,-2.6895726000000004,-2.6167307,-2.0067823000000002
39630,14:21:52.327000,-1.5896816,-5.8176599,-21.331420899999998,-1.5167123,-1.8213846999999999,-2.6029863
39631,14:21:52.338000,-2.1906002,-7.0218916,-15.370114300000001,-0.21190520000000002,-0.9832784,-2.6555207000000003
39632,14:21:52.346000,2.2767880000000003,-4.3428949999999995,-6.2725387,1.5730416,-0.5642252,-2.8949797000000004
39633,14:21:52.356000,-11.9417648,3.6629709999999998,-20.7951412,3.1099772,-0.27956220000000004,-3.2566116000000003
39634,14:21:52.365000,15.3461733,-8.1112061,13.418923399999999,2.7202453999999996,0.6025264,-3.1613166
39635,14:21:52.374000,-10.876391400000001,29.638942699999998,-11.9800701,-0.36462140000000004,1.3233469,-2.8558842999999996
39636,14:21:52.384000,-0.12928130000000002,-24.3216496,-15.7771111,-0.36462140000000004,1.3233469,-2.8558842999999996
39637,14:21:52.394000,-5.6668315,-4.1753082,4.5272403,5.4569197,2.5450761,-4.6493831
39638,14:21:52.405000,-3.5073547,10.2275896,12.918557199999999,8.5173521,4.0343647,-3.5437179
39639,14:21:52.413000,-3.0548699,2.6981492,9.8804464,8.5173521,4.0343647,-3.5437179
39640,14:21:52.426000,-8.0250187,5.037183799999999,16.4019718,6.303578400000001,4.1797504,-2.843667
39641,14:21:52.433000,-17.5415611,6.9596448,25.0374832,5.675609099999999,3.4674818999999997,-2.2633455000000002
39642,14:21:52.443000,-23.119812,6.5215249,27.218507799999998,4.0079484,2.6073844,-1.7233411
39643,14:21:52.458000,-35.0903053,4.508088099999999,43.491195700000006,1.0916801999999999,2.0233977,-0.20106629999999998
39644,14:21:52.460000,-31.7385674,-5.317293599999999,34.0201454,-1.9699738000000002,1.2671473,1.5594458999999998
39645,14:21:52.470000,-34.283496899999996,-4.1609435,29.1194248,-3.2026988999999997,1.8609078000000001,2.6015811
39646,14:21:52.480000,-36.3926964,0.7373824000000001,31.250169800000002,-3.2026988999999997,1.8609078000000001,2.6015811
39647,14:21:52.490000,-29.6245785,1.3119662,32.384975399999995,-2.5026479,2.6758013,3.6180601
39648,14:21:52.504000,-16.7419338,-0.7086533,31.259748499999997,-1.1025459999999998,2.1113622000000003,3.6205034
39649,14:21:52.510000,-5.685984599999999,1.4412475,17.500862100000003,-1.1025459999999998,2.1113622000000003,3.6205034
39650,14:21:52.524000,-4.4530234,-8.791131,20.254076,-3.2466812000000003,-0.11585050000000001,4.198381400000001
39651,14:21:52.538000,9.901991800000001,-7.337912599999999,7.922072900000001,-3.2466812000000003,-0.11585050000000001,4.198381400000001
39652,14:21:52.549000,2.8729186,-11.553920699999999,-4.5966697,-2.194772,-1.9093491999999999,2.4781864
39653,14:21:52.558000,-7.4264946,-7.5533814,-9.406414,-5.2112217,-2.1720212,2.1580932
39654,14:21:52.570000,-2.3342462000000004,-17.8791294,-12.274543800000002,-4.3792243,-3.3619857000000004,0.7066786999999999
39655,14:21:52.578000,-0.9025753000000001,-15.796263699999999,-13.2369719,-4.3792243,-3.3619857000000004,0.7066786999999999
39656,14:21:52.587000,-2.6598437,-10.7590799,-13.536233900000001,-2.2094327999999996,-3.5085931000000006,-0.6787625
39657,14:21:52.597000,-1.9152790000000002,-6.9500684999999995,-14.094059,-0.7018187,-2.8195379000000003,-1.4814386
39658,14:21:52.608000,1.7309333999999998,-5.927788700000001,-17.318910600000002,-0.98526,-2.3198504,-1.709902
39659,14:21:52.620000,-0.15082820000000002,-3.8114052000000003,-22.2914543,-1.9369872,-1.1408815,-2.5015829
39660,14:21:52.626000,0.0167587,-5.9589119,-19.2078533,-1.9369872,-1.1408815,-2.5015829
39661,14:21:52.638000,2.7771543999999997,-3.5289016,-10.5914927,0.5199108,-0.5385689,-2.7471504
39662,14:21:52.646000,4.8935379999999995,0.8594815,-14.0725117,0.5199108,-0.5385689,-2.7471504
39663,14:21:52.656000,-5.1832242,-6.88064,5.367569400000001,1.2993741,1.0191362,-1.9701304
39664,14:21:52.665000,-8.4703207,20.096063600000004,-8.1040249,1.2993741,1.0191362,-1.9701304
39665,14:21:52.674000,-1.7500861,-3.1841512,-14.9870577,1.5938108999999998,1.0924399,-2.3073277
39666,14:21:52.688000,0.0933698,-15.8130217,-5.429815799999999,4.1606646000000005,2.8089697,-2.2755628
39667,14:21:52.694000,-1.3406953000000001,8.3889217,8.9491405,4.1606646000000005,2.8089697,-2.2755628
39668,14:21:52.704000,0.7541412,7.900525999999999,11.1205893,9.3322458,3.3880696000000006,-2.686064
39669,14:21:52.713000,0.8331464,7.3403072,13.725367499999999,9.3114758,3.9244087,-1.8479575000000001
39670,14:21:52.723000,-1.4627944,9.1550341,16.816150699999998,3.8381279000000004,3.1852624,-0.8852348
39671,14:21:52.735000,-5.6979551,12.516347900000001,21.372119899999998,1.2004141000000002,2.2982869,-0.4564077
39672,14:21:52.742000,-14.821865099999998,17.6516895,19.0833626,1.2004141000000002,2.2982869,-0.4564077
39673,14:21:52.752000,-23.6896076,6.1288929,35.9234505,-3.3212066,-1.052917,1.1098495000000002
39674,14:21:52.761000,-23.371192899999997,-3.2679447999999995,23.8356476,-3.3212066,-1.052917,1.1098495000000002
39675,14:21:52.771000,-25.8993607,-7.8215202999999995,18.561447100000002,-3.8746502,-2.0034224999999997,0.6517009
39676,14:21:52.785000,-34.024932899999996,-12.6025362,25.7820492,-2.1678941000000003,0.0160963,1.9247431000000002
39677,14:21:52.791000,-33.5365372,-14.3430462,29.447414399999996,-2.1678941000000003,0.0160963,1.9247431000000002
39678,14:21:52.802000,-31.9013653,-10.150979,25.3678703,-0.7910049,0.0698524,2.9057918
39679,14:21:52.810000,-27.5369244,-12.6264772,16.3780308,-0.7641269,0.0771828,3.3456144
39680,14:21:52.821000,-24.462900199999996,-22.212448100000003,12.1548386,-2.3279407,-0.4542695,3.1476941000000003
39681,14:21:52.829000,-5.2287116,-19.2557354,17.3332748,-2.3279407,-0.4542695,3.1476941000000003
39682,14:21:52.838000,7.1631436,-12.2458153,8.8533773,-1.1758498,-1.2178503999999999,1.9271865000000001
39683,14:21:52.850000,10.584310499999999,-5.0252137,5.7123194,-1.6339983,-0.1500589,1.7793572
39684,14:21:52.859000,7.395371000000001,-5.197588400000001,-3.5360837,-1.6339983,-0.1500589,1.7793572
39685,14:21:52.870000,2.3653696,-12.336791,-12.6264772,-3.3688540000000002,-0.9735045,1.9186343999999997
39686,14:21:52.879000,2.9495296000000004,-6.5191312,-8.9515352,-4.166643100000001,-1.6686685,0.8667253
39687,14:21:52.888000,-1.7069923999999999,-2.8417952,-7.1248379,-2.0787077000000003,-2.1048259999999996,-0.7300751
39688,14:21:52.900000,-2.6622376,-7.1344147,-7.606051400000001,-2.2851801,-2.2929722999999997,-1.2945141000000002
39689,14:21:52.907000,-1.5226468,-8.010654400000002,-6.827969599999999,-2.2851801,-2.2929722999999997,-1.2945141000000002
39690,14:21:52.919000,8.7169142,2.66942,-18.4872303,-0.45502929999999997,-0.7755843000000001,-2.4954741
39691,14:21:52.927000,-3.9382925,13.359070800000001,-20.740078,-0.45502929999999997,-0.7755843000000001,-2.4954741
39692,14:21:52.936000,-8.599602699999998,4.7283449,-30.1776142,-1.1624107,1.7521738999999998,-1.4936559
39693,14:21:52.949000,-11.1804409,-7.400158900000001,-16.047643700000002,-1.8917831999999999,1.9708633000000002,-0.5126073
39694,14:21:52.956000,7.3115773,-10.8979368,9.9786043,1.5339462,1.0374622,-1.2896272
39695,14:21:52.966000,-19.231796300000003,19.8422909,-4.407536,6.883899700000001,-0.45671300000000004,-3.1319952
39696,14:21:52.975000,15.808234200000001,-10.675286300000002,5.0730948,5.311533900000001,1.1071007,-2.4258356
39697,14:21:52.985000,0.0430938,-34.3433495,-4.1896729,5.076962,2.1284664,-3.6402347
39698,14:21:52.995000,4.8193212,-3.1578162,-6.8447285,5.076962,2.1284664,-3.6402347
39699,14:21:53.004000,3.7898582999999997,2.1786296000000003,3.9909625,9.9431105,3.0948544,-4.813095099999999
39700,14:21:53.016000,3.2320333,8.2763996,7.187084700000001,10.0799437,3.7851317000000004,-3.5852568
39701,14:21:53.024000,0.1580105,4.9629664,10.3832064,10.0799437,3.7851317000000004,-3.5852568
39702,14:21:53.035000,-1.8650029,5.5160035999999995,13.3040066,3.4887133,2.789422,-1.9640218
39703,14:21:53.043000,-5.6524668,7.2756662,15.370114300000001,3.4887133,2.789422,-1.9640218
39704,14:21:53.052000,-7.0003443,7.6754804000000005,16.409153,0.4832589,2.2127657000000003,-1.1417979
39705,14:21:53.066000,-9.3657141,6.4497018,16.7562962,-3.7427032,0.5805353,0.18011329999999998
39706,14:21:53.072000,-17.7881546,5.7889309,15.511365900000001,-3.7427032,0.5805353,0.18011329999999998
39707,14:21:53.082000,-27.2376614,3.0141702,10.909908300000001,-4.8104944000000005,-0.1744935,-0.0691195
39708,14:21:53.100000,-30.4840603,-4.512876,8.467927,-5.1244793,0.22012510000000002,0.4562242
39709,14:21:53.114000,-35.2124023,-5.1592832,6.1743803,-4.6492262,2.5695107000000004,2.5307207000000003
39710,14:21:53.120000,-37.4341278,-5.1377358,2.4419807999999996,-4.6492262,2.5695107000000004,2.5307207000000003
39711,14:21:53.132000,-32.7297249,-5.743443,2.789125,-4.3535676,2.8712779999999998,3.5252084999999997
39712,14:21:53.140000,-25.1715546,-5.281382099999999,4.7115865,-4.193521,2.8126349,3.676703
39713,14:21:53.149000,-17.620565399999997,-4.5607581,5.2670169,-4.447640900000001,2.3373821,3.4299138
39714,14:21:53.165000,-12.0327396,-4.8911432999999995,4.601458099999999,-6.3718648,0.9336151,2.8056099
39715,14:21:53.169000,-6.7872701,-4.8743849,4.5392108,-7.122006900000001,0.4241539000000001,2.6162419
39716,14:21:53.182000,-3.4115907999999995,-5.5279741,1.0174919,-7.5361729,0.16148210000000002,1.9760556
39717,14:21:53.187000,-1.1300146999999998,-6.9069747999999995,0.9360925999999999,-7.0645852,0.0955087,1.1232885
39718,14:21:53.197000,3.7659172999999995,-10.0336676,2.5856267999999996,-5.8379688,-0.0401032,0.0554969
39719,14:21:53.206000,4.625399099999999,-2.6837847000000004,-3.9406865,-4.4048805,0.5988613,0.1788916
39720,14:21:53.216000,5.901453500000001,-2.0589249,-0.5745836999999999,-3.1330602,1.4711761,0.040836199999999996
39721,14:21:53.225000,2.4874685000000003,-3.5408720999999996,-0.5985246999999999,-3.1330602,1.4711761,0.040836199999999996
39722,14:21:53.235000,1.9200671999999999,-6.794452199999999,-1.7955738999999997,-2.1251335,1.6690962,0.3230557
39723,14:21:53.245000,3.3349794999999998,-7.4169178,-1.6567163,0.148505,0.9556063,0.7201177
39724,14:21:53.254000,3.6821237,-6.3683023,-0.8283582,0.148505,0.9556063,0.7201177
39725,14:21:53.265000,3.2200627,-5.1497064,-0.30883879999999997,1.4899639,0.464471,0.944916
39726,14:21:53.277000,2.1666594,-4.1824902999999996,0.8882107,2.4355824,0.1871384,1.0695324
39727,14:21:53.285000,1.1611378,-3.6055129,1.9176731,2.9071701,0.21279479999999998,1.1672708
39728,14:21:53.296000,-0.2561686,-3.5719953,2.1427186000000003,2.7996578,0.3361894,1.1794881000000002
39729,14:21:53.304000,-1.7692389,-3.8281641000000004,1.5322232,2.1313720000000003,0.5438834,1.1184015
39730,14:21:53.314000,-2.5329566000000003,-4.8456559,-0.48121379999999997,1.2040792,0.762573,1.0292153
39731,14:21:53.324000,-3.1697867000000004,-6.1288929,-1.6974159,0.40751170000000003,0.9250630999999999,0.8386254999999999
39732,14:21:53.333000,-3.4331373999999997,-6.476037,-2.2265117,0.2022611,1.214613,0.23142600000000002
39733,14:21:53.349000,-3.5983305,-6.5047665,-1.065374,0.6640748000000001,1.2023957,-0.0862237
39734,14:21:53.352000,-3.0237467000000002,-5.889483,0.8211759,0.6640748000000001,1.2023957,-0.0862237
39735,14:21:53.363000,-2.2839704,-4.852837999999999,0.7373824000000001,1.2028575000000001,0.9666018,-0.72641
39736,14:21:53.372000,-2.7388489,-4.3285303,0.32320340000000003,1.2028575000000001,0.9666018,-0.72641
39737,14:21:53.381000,-4.7283449,-4.6445513,-0.4381201,1.1686491,0.9727104,-0.8693523000000001
39738,14:21:53.394000,-9.767923399999999,-6.2916913,-1.6902337,1.0379241,1.2903601999999998,-0.9206648999999999
39739,14:21:53.401000,-20.6706486,-4.3931708,-4.2878308,1.0379241,1.2903601999999998,-0.9206648999999999
39740,14:21:53.412000,-35.38956829999999,-9.351349800000001,-5.7817483,2.0006468,0.47180140000000004,-0.47351190000000004
39741,14:21:53.420000,-36.8667297,-12.676753,-4.8863554,2.0006468,0.47180140000000004,-0.47351190000000004
39742,14:21:53.431000,-35.2818336,-12.607323599999999,-4.476964499999999,3.8979926,1.7448435000000002,-0.8656870999999999
39743,14:21:53.440000,-29.270252199999998,-10.507699,-5.5183973,3.8979926,1.7448435000000002,-0.8656870999999999
39744,14:21:53.449000,-23.8619823,-6.6484122,-3.2775211000000004,3.7636025,2.2237612999999996,0.7408871
39745,14:21:53.461000,-20.488697100000003,-3.7156413,-1.5705287,4.2498507000000005,1.8755683999999997,1.7976831000000002
39746,14:21:53.469000,-15.8920269,-0.8115995,2.4898627,4.2498507000000005,1.8755683999999997,1.7976831000000002
39747,14:21:53.480000,-12.1500511,-0.9911568999999999,2.7292726000000003,3.5913386,1.1633003,1.2246920000000001
39748,14:21:53.488000,-11.1588936,-2.7532134,0.387844,3.5913386,1.1633003,1.2246920000000001
39749,14:21:53.498000,-11.965705900000001,-3.3206151,0.7972349,2.7043629,1.5725796,1.0890801
39750,14:21:53.511000,-11.4940681,-3.0596582999999997,1.3047838,2.5711944,1.7008612,1.7170490000000003
39751,14:21:53.518000,-9.9786043,-2.7843367999999997,1.4580061000000002,2.5711944,1.7008612,1.7170490000000003
39752,14:21:53.529000,-7.9986839000000005,-2.4778922000000003,1.8841558,2.771558,1.6202271000000001,1.2271355
39753,14:21:53.536000,-6.456884400000001,-2.0278015,1.9464022,2.8460836,1.5408146,0.9559115
39754,14:21:53.545000,-4.7498922,-1.5944698,2.47071,2.9975781,1.4540718000000001,0.7531044
39755,14:21:53.554000,-3.3206151,-0.9001811,3.0452936,2.9975781,1.4540718000000001,0.7531044
39756,14:21:53.565000,-2.2743938,-0.045487900000000005,3.7252178,3.287128,1.3111296000000001,0.6028316999999999
39757,14:21:53.574000,-1.8841558,1.1850789,4.9773316,3.6145513,1.1571915000000002,0.5148672000000001
39758,14:21:53.585000,-0.9959450000000001,2.0900483,5.4824858,3.886997,1.0142493000000001,0.4501155
39759,14:21:53.595000,-1.0462211,2.8657362,4.7331328,3.9859571000000003,0.7894511,0.46355459999999993
39760,14:21:53.604000,-1.5896816,3.1793633,4.508088099999999,3.8344626,0.5719831999999999,0.5637363000000001
39761,14:21:53.614000,-2.422828,2.8609481,4.1489735,3.372649,0.45836229999999994,0.7164524999999999
39762,14:21:53.625000,-4.1082735,1.9487964,3.7204294,2.6567156,0.2653291,0.8337386
39763,14:21:53.634000,-6.3276029000000005,1.3742126000000001,2.473104,1.8137223000000002,0.1492648,0.8642818000000001
39764,14:21:53.643000,-9.2651625,1.7405096999999998,2.1666594,0.5797755,0.107726,0.9656853000000001
39765,14:21:53.663000,-13.0262909,3.0500817000000002,2.7651839,0.5797755,0.107726,0.9656853000000001
39766,14:21:53.676000,-11.7885418,3.1554222000000003,3.6462126000000006,-0.8691957,-0.8574402,0.6309314
39767,14:21:53.682000,-10.507699,3.2511859,4.374018700000001,-0.8691957,-0.8574402,0.6309314
39768,14:21:53.694000,-9.820592900000001,4.010115600000001,4.6660986,-2.7274461,-1.4475354999999999,0.5478539000000001
39769,14:21:53.702000,-10.6896505,3.7730997000000004,5.080277400000001,-2.7274461,-1.4475354999999999,0.5478539000000001
39770,14:21:53.711000,-12.961650800000001,4.5846992,3.9167454,-5.1195922,-1.5965865,0.9229248
39771,14:21:53.724000,-15.9327269,4.5846992,2.5568974,-6.517250499999999,-1.7639634999999998,1.0450978000000002
39772,14:21:53.731000,-17.7498474,2.9064360000000002,0.6751359,-6.517250499999999,-1.7639634999999998,1.0450978000000002
39773,14:21:53.744000,-19.121666,2.0182252,-0.9528513000000001,-9.0841045,-2.2685378,0.822743
39774,14:21:53.750000,-18.590175600000002,0.9313045,-2.2336943,-9.0841045,-2.2685378,0.822743
39775,14:21:53.760000,-17.5224075,-0.8451169,-2.0876541,-10.291172999999999,-3.4230720999999997,0.0835967
39776,14:21:53.771000,-15.6789532,-2.7771543999999997,-1.7859976000000002,-10.291172999999999,-3.4230720999999997,0.0835967
39777,14:21:53.779000,-10.095913900000001,-6.9141569,2.106807,-10.5489578,-4.0119457,-0.24749200000000002
39778,14:21:53.791000,-12.9999561,-4.5272403,-0.059852499999999996,-10.055378900000001,-4.2721739,-0.39776469999999997
39779,14:21:53.799000,-12.8730688,-3.5408720999999996,-0.1532223,-10.055378900000001,-4.2721739,-0.39776469999999997
39780,14:21:53.808000,-11.9752817,-3.3373737,0.169981,-9.515375099999998,-4.248961,-0.9243300999999999
39781,14:21:53.818000,-13.560174900000002,-2.7292726000000003,-1.0103096999999999,-9.515375099999998,-4.248961,-0.9243300999999999
39782,14:21:53.827000,-13.964777900000001,-3.9909625,-0.2777155,-9.649764999999999,-4.3466992,-1.2981793
39783,14:21:53.841000,-13.9168959,-4.512876,-0.7613234,-10.175108900000001,-4.742539900000001,-2.7056115000000003
39784,14:21:53.847000,-11.4820976,-6.813604799999999,-0.15082820000000002,-10.175108900000001,-4.742539900000001,-2.7056115000000003
39785,14:21:53.860000,-8.7097311,-8.8509827,-1.4412475,-10.6686869,-4.4028988,-4.4600153
39786,14:21:53.866000,-5.7937188,-10.866813699999998,-1.6327753999999999,-10.6686869,-4.4028988,-4.4600153
39787,14:21:53.875000,-4.096303,-12.990380300000002,-2.7125139,-10.4304504,-4.007058600000001,-5.1527357
39788,14:21:53.885000,-3.7826760000000004,-13.8881674,-3.9933567,-9.8684549,-3.7187307,-5.6756358
39789,14:21:53.894000,-3.8880162000000005,-14.8170767,-4.115455600000001,-8.9765921,-3.4572806000000003,-6.0494851999999995
39790,14:21:53.909000,-6.423367,-14.984664000000002,-3.9023809000000003,-6.545350599999999,-2.6362784,-6.2522922
39791,14:21:53.915000,-7.665903999999999,-15.0109987,-3.1410575,-6.545350599999999,-2.6362784,-6.2522922
39792,14:21:53.925000,-9.1909447,-15.5616417,-3.7994347,-5.253982499999999,-1.2532806,-5.8234653
39793,14:21:53.934000,-8.3338575,-17.089075100000002,-3.5719953,-5.253982499999999,-1.2532806,-5.8234653
39794,14:21:53.944000,-8.2500648,-17.5870495,-3.9430807,-5.0890489,-0.5886598000000001,-5.5693455
39795,14:21:53.956000,-7.735333,-17.4577675,-3.7060647000000007,-4.6357875,0.3398546,-5.4997067
39796,14:21:53.964000,-7.0961084,-17.7953358,-4.5918813,-4.6357875,0.3398546,-5.4997067
39797,14:21:53.974000,-6.023552400000001,-18.2119102,-5.2287116,-4.1348782,1.1388657,-5.7147312
39798,14:21:53.983000,-4.6780691,-19.1312447,-6.4209727999999995,-4.1348782,1.1388657,-5.7147312
39799,14:21:53.992000,-3.8928044,-18.0802345,-6.835152099999999,-3.7097165999999997,1.5774665,-5.9224253
39800,14:21:54.005000,-3.3469501000000004,-16.6365929,-6.8471227,-2.2204285,2.4314554,-6.5259595
39801,14:21:54.011000,-2.6382967999999996,-16.0596142,-7.6922393,-2.2204285,2.4314554,-6.5259595
39802,14:21:54.025000,-1.9320377,-15.2144976,-8.1614828,-1.0939938999999999,3.0288811,-7.147819999999999
39803,14:21:54.031000,-1.333513,-14.0868769,-8.2835817,-1.0939938999999999,3.0288811,-7.147819999999999
39804,14:21:54.041000,-1.0270684,-12.7461824,-8.9443531,-0.055523800000000005,3.2280231,-7.7623496
39805,14:21:54.049000,-1.0605857,-11.288175599999999,-9.681735,-0.055523800000000005,3.2280231,-7.7623496
39806,14:21:54.059000,-1.6064403,-9.8421402,-10.608251600000001,0.3097733,3.2170273999999996,-7.932169900000001
39807,14:21:54.071000,-2.2384822,-8.2476702,-11.283387199999998,0.8241214,3.0594243999999997,-8.0885515
39808,14:21:54.078000,-2.9974117000000002,-6.602924300000001,-11.534768099999999,0.8241214,3.0594243999999997,-8.0885515
39809,14:21:54.089000,-3.5289016,-5.4417862999999995,-11.427033400000001,0.9194163000000001,2.9348077999999997,-8.0628948
39810,14:21:54.099000,-3.8497107,-5.2718053,-11.541950199999999,0.8790992,2.7649875,-7.932169900000001
39811,14:21:54.109000,-4.0819383,-5.8966651,-11.635319699999998,0.835117,2.5670674,-7.6890459
39812,14:21:54.121000,-4.0891209,-6.0570698,-11.4150629,1.2028575000000001,2.3361604,-7.032977099999999
39813,14:21:54.128000,-3.9478687999999993,-5.6716199000000005,-11.0296125,1.2028575000000001,2.3361604,-7.032977099999999
39814,14:21:54.138000,-3.610301,-4.177702399999999,-10.6226158,1.3714561,2.3679254000000003,-6.6102591
39815,14:21:54.148000,-2.6909671000000004,-3.0955698,-9.5380888,1.2260703000000002,2.4925417999999997,-6.108128099999999
39816,14:21:54.157000,-2.0373781,-1.9224613000000002,-8.724096300000001,0.6836225,2.6843534,-5.587671299999999
39817,14:21:54.169000,-1.4532180000000001,-1.6327753999999999,-9.0281458,-0.189914,2.9555773999999997,-4.9389329
39818,14:21:54.188000,-1.79318,-0.0263351,-7.2828484,-2.5234172000000004,4.3361316,-2.4429397999999996
39819,14:21:54.196000,-3.1314812,1.3143603000000001,-7.653933500000001,-2.5234172000000004,4.3361316,-2.4429397999999996
39820,14:21:54.204000,-4.1944609,0.9193339,-6.3970318,-2.8019717,5.056952,-1.5669597
39821,14:21:54.214000,-6.0570698,0.3495384,-5.8942709,-2.7225592,5.9952402000000005,-0.6262281999999999
39822,14:21:54.224000,-8.738459599999999,1.8626089,-6.286903400000001,-2.6297078,7.275612799999999,0.2864038
39823,14:21:54.235000,-17.0938663,11.3743629,-7.9388312999999995,-2.0249517,9.9817429,2.4989557000000002
