,time,ax,ay,az,wx,wy,wz
47307,14:23:08.001000,0.0023940999999999997,-3.1913337999999998,-9.722435,-0.1129451,0.0820697,0.012736399999999998
47308,14:23:08.011000,0.009576399999999999,-3.1769691000000004,-9.641036,-0.1129451,0.0820697,0.012736399999999998
47309,14:23:08.024000,0.047882,-3.1961217,-9.722435,-0.1007278,0.0722959,0.0102929
47310,14:23:08.033000,0.0406997,-3.1721807,-9.641036,-0.0836236,0.060078599999999996,0.0029625999999999997
47311,14:23:08.043000,0.0646407,-3.1697867000000004,-9.6625834,-0.06774110000000001,0.050304699999999994,0.0066277
47312,14:23:08.050000,0.0263351,-3.1745751,-9.6290646,-0.0543021,0.0405309,0.0066277
47313,14:23:08.060000,0.0694289,-3.1793633,-9.605124499999999,-0.032311,0.027091900000000006,0.0005191
47314,14:23:08.070000,0.0311233,-3.1482398999999996,-9.6458244,-0.020093700000000003,0.0246484,-0.0031460999999999998
47315,14:23:08.080000,0.0335174,-3.1482398999999996,-9.6075182,-0.004211199999999999,0.0209832,-0.0055896
47316,14:23:08.088000,0.028729200000000003,-3.1793633,-9.5955477,-0.004211199999999999,0.0209832,-0.0055896
47317,14:23:08.098000,0.10294629999999999,-3.1745751,-9.571606599999999,0.005562699999999999,0.017318,-0.0068113
47318,14:23:08.108000,0.0622466,-3.1458457,-9.576395,0.0092278,0.0136528,-0.0055896
47319,14:23:08.118000,0.0622466,-3.1865456,-9.5452719,0.0080061,0.0136528,-0.0019244
47320,14:23:08.128000,0.0502761,-3.1745751,-9.521330800000001,0.0006757000000000001,0.014874600000000002,0.0005191
47321,14:23:08.140000,0.1867397,-3.1985159,-9.5189371,-0.0078764,0.017318,0.0029625999999999997
47322,14:23:08.149000,0.0263351,-3.1745751,-9.5787888,-0.0152067,0.0136528,-0.008033
47323,14:23:08.157000,0.0,-3.1745751,-9.588364599999998,-0.028645799999999996,0.027091900000000006,0.0176233
47324,14:23:08.166000,0.0406997,-3.1602101,-9.6458244,-0.0298675,0.0295353,0.012736399999999998
47325,14:23:08.176000,0.0646407,-3.2056982999999994,-9.6027298,-0.0298675,0.0246484,0.0041843
47326,14:23:08.185000,0.11731079999999999,-3.1482398999999996,-9.617094999999999,-0.0298675,0.0246484,0.0041843
47327,14:23:08.195000,-0.0023940999999999997,-3.1147225,-9.6218834,-0.0249806,0.0136528,0.0066277
47328,14:23:08.204000,0.05745840000000001,-3.1434517000000004,-9.597942399999999,-0.0249806,0.0136528,0.0066277
47329,14:23:08.215000,0.071823,-3.1841512,-9.6458244,-0.0164285,0.008765899999999998,0.0017408
47330,14:23:08.224000,0.0430938,-3.1697867000000004,-9.6027298,-0.0078764,0.0014356,-0.009254700000000001
47331,14:23:08.237000,0.07421710000000001,-3.153028,-9.619488699999998,0.0006757000000000001,-0.0046731,-0.0116982
47332,14:23:08.246000,0.0622466,-3.1458457,-9.552454,0.005562699999999999,-0.0120035,-0.017806799999999998
47333,14:23:08.253000,0.0622466,-3.1410575,-9.6099119,0.010449600000000002,-0.0181121,-0.019028599999999996
47334,14:23:08.263000,0.0359115,-3.1386635,-9.5859709,0.011671299999999999,-0.0266642,-0.019028599999999996
47335,14:23:08.273000,0.0502761,-3.1721807,-9.588364599999998,0.011671299999999999,-0.0266642,-0.019028599999999996
47336,14:23:08.282000,0.009576399999999999,-3.1578162,-9.6218834,0.011671299999999999,-0.0401032,-0.019028599999999996
47337,14:23:08.291000,-0.038305599999999995,-3.1386635,-9.6530056,0.011671299999999999,-0.0401032,-0.019028599999999996
47338,14:23:08.302000,-0.009576399999999999,-3.1195107,-9.6625834,0.0092278,-0.049877099999999994,-0.0202503
47339,14:23:08.314000,-0.0167587,-3.1578162,-9.6769466,0.0141148,-0.062094399999999994,-0.026358999999999997
47340,14:23:08.324000,-0.0263351,-3.1602101,-9.655400300000002,0.0275538,-0.0804203,-0.03613280000000001
47341,14:23:08.333000,0.038305599999999995,-3.1841512,-9.6649771,0.043436300000000004,-0.09874630000000001,-0.047128300000000005
47342,14:23:08.343000,-0.009576399999999999,-3.1410575,-9.6530056,0.056875300000000004,-0.1170722,-0.058123900000000006
47343,14:23:08.351000,-0.1556164,-3.2320333,-9.7200413,0.06664910000000002,-0.1353981,-0.066676
47344,14:23:08.360000,0.07661119999999999,-3.1817572,-9.7104654,0.0727578,-0.18915420000000002,-0.1045496
47345,14:23:08.369000,-0.019152799999999998,-3.296674,-9.6793413,0.0727578,-0.2135888,-0.10821480000000001
47346,14:23:08.380000,0.09097569999999999,-3.0045941000000003,-9.461478199999998,0.0471015,-0.2465755,-0.08744539999999999
47347,14:23:08.401000,-0.3303856,-2.9208004,-9.617094999999999,0.0471015,-0.2465755,-0.08744539999999999
47348,14:23:08.408000,-0.1436459,-2.9998057,-9.588364599999998,-0.10561469999999999,-0.2526842,0.0396144
47349,14:23:08.419000,-0.0646407,-3.0572641,-9.7391939,-0.1752533,-0.2636797,0.054275199999999996
47350,14:23:08.428000,0.0119705,-2.8154602000000004,-9.511754,-0.2106835,-0.27223179999999997,0.0481665
47351,14:23:08.440000,0.1101285,-1.6040461000000001,-9.2053099,-0.21679210000000002,-0.2771187,0.0799315
47352,14:23:08.449000,-0.3184151,-2.9303767999999994,-9.6003361,-0.2742134,-0.27345359999999996,0.1385745
47353,14:23:08.457000,-0.4381201,-3.1793633,-9.8253813,-0.6053021,-0.2685667,0.172783
47354,14:23:08.467000,-0.42854369999999997,-3.3876498,-10.0145149,-0.5808675,-0.2697884,0.1031444
47355,14:23:08.476000,-0.4381201,-3.5600247000000005,-10.1605549,-0.5002333,-0.3223227,0.08726189999999999
47356,14:23:08.485000,-0.7230178,-3.5983305,-10.3401117,-0.5002333,-0.3223227,0.08726189999999999
47357,14:23:08.495000,-1.0222802,-3.4355318999999995,-10.706410400000001,-0.3866125,-0.42006109999999997,0.1129182
47358,14:23:08.507000,-1.0174919,-3.1769691000000004,-10.455028500000001,-0.23023110000000002,-0.7059458000000001,0.1483484
47359,14:23:08.518000,-1.1204382,-2.8154602000000004,-10.4191179,-0.23023110000000002,-0.7059458000000001,0.1483484
47360,14:23:08.526000,-1.2808429,-2.5880208,-10.3161716,-0.20946170000000003,-0.8818749,0.15079179999999998
47361,14:23:08.536000,-1.3718187,-2.4683158,-10.1605549,-0.2705482,-1.0578039,0.1556787
47362,14:23:08.548000,-1.431671,-2.4108574000000003,-9.923539199999999,-0.3524041,-1.2483938,0.1605656
47363,14:23:08.554000,-1.4244888,-2.5138037,-9.796651800000001,-0.4208209,-1.4072185,0.14223970000000002
47364,14:23:08.564000,-1.3454834999999998,-2.645479,-9.7056761,-0.4757988,-1.5941432,0.0738229
47365,14:23:08.574000,-1.3933655,-2.8465835999999998,-9.7607412,-0.45991629999999994,-1.6552296000000002,0.0848184
47366,14:23:08.582000,-1.5346173,-2.9615002,-9.8493223,-0.4012732,-1.6967683,0.12635719999999998
47367,14:23:08.592000,-1.6255928999999998,-2.8920712,-9.758345599999998,-0.3059784,-1.6955466000000001,0.1361311
47368,14:23:08.604000,-1.7357216,-2.7220902000000002,-9.641036,-0.22778769999999998,-1.6759988999999997,0.13002239999999998
47369,14:23:08.612000,-1.8793674999999999,-2.5545032,-9.4902067,-0.22778769999999998,-1.6759988999999997,0.13002239999999998
47370,14:23:08.622000,-2.0469543999999997,-2.3605812000000004,-9.3633204,-0.18380539999999998,-1.6356819,0.12391379999999999
47371,14:23:08.633000,-1.9320377,-3.0835993,-9.4997845,-0.1801402,-1.5880344,0.11658339999999999
47372,14:23:08.644000,-2.5473211,-2.4012811000000003,-9.2747393,-0.194801,-1.5391653,0.11780510000000001
47373,14:23:08.654000,-2.5185918999999997,-2.3126995999999997,-9.1263037,-0.20824,-1.5074003,0.2021044
47374,14:23:08.661000,-2.4012811000000003,-2.2624232999999996,-8.953928900000001,-0.0872888,-1.3950011999999998,0.15934389999999998
47375,14:23:08.670000,-2.4443748,-2.2121472,-8.8749237,-0.0946192,-1.2887108,0.1336876
47376,14:23:08.681000,-2.5640798,-2.183418,-8.8509827,-0.1263841,-1.1604292,0.1251355
47377,14:23:08.689000,-2.6981492,-2.1929946,-8.815072099999998,-0.1263841,-1.1604292,0.1251355
47378,14:23:08.700000,-2.8681302000000004,-2.279182,-8.7456427,-0.15326220000000002,-1.0199302,0.11169649999999999
47379,14:23:08.710000,-2.9495296000000004,-2.2313001,-8.633119599999999,-0.1508187,-0.7450411,0.09092710000000001
47380,14:23:08.719000,-3.0165646,-2.1546887999999997,-8.664242699999999,-0.1508187,-0.7450411,0.09092710000000001
47381,14:23:08.729000,-2.9974117000000002,-2.106807,-8.5900259,-0.12882760000000001,-0.6265334,0.0860402
47382,14:23:08.738000,-2.8010955,-2.159477,-8.5086269,-0.1092799,-0.5092474,0.07870980000000001
47383,14:23:08.749000,-2.7795486,-2.3198817000000003,-8.7576132,-0.0885105,-0.2184757,0.0762663
47384,14:23:08.758000,-3.4953842000000006,-2.2025707000000003,-8.7983131,-0.0885105,-0.2184757,0.0762663
47385,14:23:08.766000,-3.8999867,-2.0613191000000004,-8.7959194,-0.0384196,0.0429744,0.1153617
47386,14:23:08.776000,-3.9023809000000003,-2.0230136,-8.9252005,-0.034754400000000005,0.0209832,0.0652708
47387,14:23:08.785000,-3.5935422999999993,-1.9296436000000001,-8.8701363,-0.034754400000000005,0.0209832,0.0652708
47388,14:23:08.794000,-3.3206151,-2.0110431,-8.901259399999999,-0.034754400000000005,-0.0120035,0.0041843
47389,14:23:08.806000,-3.1482398999999996,-2.1906002,-8.9706879,-0.0420848,-0.0315511,-0.0288024
47390,14:23:08.815000,-3.1841512,-2.305517,-8.9970226,-0.06163250000000001,-0.0083383,-0.039798
47391,14:23:08.825000,-3.2847035000000004,-2.3438227000000005,-9.0616636,-0.0799584,0.0380874,-0.0349111
47392,14:23:08.839000,-3.4714432,-2.353399,-9.1598225,-0.08606710000000001,0.0845132,-0.0226938
47393,14:23:08.845000,-3.5049605,-2.2887584999999997,-9.2555857,-0.0762932,0.11261289999999999,-0.0141417
47394,14:23:08.854000,-3.5672072999999997,-2.2456646,-9.3537436,-0.051858600000000005,0.11016949999999999,-0.0055896
47395,14:23:08.864000,-3.5815718,-2.2217238,-9.4112024,-0.027424,0.08695660000000001,-0.0007026
47396,14:23:08.874000,-3.5839657999999996,-2.252847,-9.485419300000002,-0.013985,0.051526499999999996,0.0017408
47397,14:23:08.883000,-3.6342421000000003,-2.300729,-9.471055,-0.0164285,-0.0633161,0.0029625999999999997
47398,14:23:08.893000,-3.6821237,-2.3318522,-9.4495077,-0.0164285,-0.0633161,0.0029625999999999997
47399,14:23:08.904000,-3.6055129,-2.3198817000000003,-9.382473,-0.027424,-0.1879325,-0.0007026
47400,14:23:08.913000,-3.5265076,-2.2313001,-9.4040203,-0.027424,-0.1879325,-0.0007026
47401,14:23:08.923000,-3.4594727,-2.1546887999999997,-9.3274088,-0.013985,-0.2441321,-0.008033
47402,14:23:08.934000,-3.4379258000000004,-2.1642652,-9.3298035,-0.000546,-0.28078400000000003,-0.0104765
47403,14:23:08.944000,-2.5712618999999997,-2.8322186,-8.7600069,0.0043409,-0.3039968,-0.008033
47404,14:23:08.954000,-3.6533947,-2.2169354,-9.339379300000001,0.0006757000000000001,-0.31132719999999997,0.005406
47405,14:23:08.960000,-3.6653652,-2.2289058999999996,-9.1909447,-0.0078764,-0.3137707,0.0225102
47406,14:23:08.971000,-3.6486065,-2.2360882999999996,-9.238826800000002,0.0092278,-0.3443139,0.0554969
47407,14:23:08.980000,-3.6126949999999995,-2.130748,-9.1646099,0.0031191999999999995,-0.35042249999999997,0.0518317
47408,14:23:09.001000,-3.7180352,-2.1953886000000002,-9.1358814,-0.018871900000000004,-0.3308749,0.0628273
47409,14:23:09.009000,-3.7850699,-2.2025707000000003,-9.1382751,-0.0249806,-0.3198793,0.064049
47410,14:23:09.020000,-3.8114052000000003,-2.1906002,-9.068845699999999,-0.0249806,-0.3198793,0.064049
47411,14:23:09.029000,-3.7826760000000004,-2.2121472,-8.9922352,-0.0213154,-0.3235445,0.0616056
47412,14:23:09.039000,-3.809011,-2.2097533,-8.999417300000001,-0.022537099999999997,-0.3333183,0.0616056
47413,14:23:09.051000,-3.8401343999999997,-2.1906002,-9.0592699,-0.0384196,-0.3369835,0.0664925
47414,14:23:09.059000,-3.8928044,-2.1092009999999997,-9.1191216,-0.048193400000000004,-0.3235445,0.0554969
47415,14:23:09.068000,-4.0196919,-1.9990726000000003,-9.080817199999998,-0.04575,-0.32843140000000004,0.053053499999999996
47416,14:23:09.079000,-4.0747561,-2.039772,-8.8940773,-0.0494152,-0.34309209999999996,0.0457231
47417,14:23:09.086000,-4.096303,-2.0804718,-8.807889,-0.0494152,-0.34309209999999996,0.0457231
47418,14:23:09.096000,-4.1082735,-2.1211715,-8.707337400000002,-0.0543021,-0.366305,0.054275199999999996
47419,14:23:09.106000,-4.0675735,-2.1977827999999997,-8.676214199999999,-0.06651939999999999,-0.3785223,0.0493883
47420,14:23:09.115000,-4.0412387999999995,-2.1427186000000003,-8.6786079,-0.06163250000000001,-0.3760788,0.035949300000000003
47421,14:23:09.127000,-3.952657,-2.0708954,-8.6522732,-0.011541599999999999,-0.3369835,0.0273971
47422,14:23:09.135000,-4.034056700000001,-2.039772,-8.688183800000001,0.010449600000000002,-0.3052185,0.028618900000000003
47423,14:23:09.147000,-4.1417909,-2.0182252,-8.702549000000001,0.010449600000000002,-0.3052185,0.028618900000000003
47424,14:23:09.155000,-4.1968551,-2.056531,-8.707337400000002,0.0177799,-0.2697884,0.0261754
47425,14:23:09.165000,-4.2231898,-2.0708954,-8.6929731,0.0080061,-0.21236710000000003,0.012736399999999998
47426,14:23:09.175000,-4.1944609,-2.0756836,-8.7552195,0.0006757000000000001,-0.1964846,0.0017408
47427,14:23:09.183000,-4.2064314000000005,-2.0780778000000004,-8.7719784,-0.004211199999999999,-0.17815870000000003,-0.0031460999999999998
47428,14:23:09.193000,-4.1465788,-2.0972304,-8.7504311,-0.004211199999999999,-0.17815870000000003,-0.0031460999999999998
47429,14:23:09.202000,-4.2591014000000005,-2.0685015,-8.724096300000001,-0.0127633,-0.15128060000000002,-0.0104765
47430,14:23:09.212000,-4.2279787,-2.1642652,-8.7408552,-0.020093700000000003,-0.1244026,-0.009254700000000001
47431,14:23:09.222000,-4.242342900000001,-2.0876541,-8.791131,-0.0249806,-0.09874630000000001,-0.0104765
47432,14:23:09.234000,-4.3021955,-2.1115949,-8.810282699999998,-0.020093700000000003,-0.0804203,-0.0116982
47433,14:23:09.244000,-4.3213482,-2.0900483,-8.8509827,-0.0164285,-0.0669813,-0.0116982
47434,14:23:09.254000,-4.2878308,-2.130748,-8.872530000000001,-0.013985,-0.054764,-0.009254700000000001
47435,14:23:09.262000,-4.2974076,-2.0708954,-8.9659004,-0.020093700000000003,-0.041325,-0.0007026
47436,14:23:09.271000,-4.3620481,-2.1379302000000004,-8.9970226,-0.022537099999999997,-0.0388815,0.0017408
47437,14:23:09.281000,-4.4147182,-2.1115949,-9.016176199999999,-0.018871900000000004,-0.0425467,0.0066277
47438,14:23:09.289000,-4.3452892,-2.0541368,-9.0472994,-0.018871900000000004,-0.0425467,0.0066277
47439,14:23:09.300000,-4.374018700000001,-2.0325898999999996,-9.018569900000001,-0.0127633,-0.07308989999999999,0.0066277
47440,14:23:09.310000,-4.400353400000001,-2.0110431,-8.9946289,-0.0127633,-0.07308989999999999,0.0066277
47441,14:23:09.319000,-4.417111900000001,-2.0541368,-8.9970226,-0.0164285,-0.0901942,0.005406
47442,14:23:09.329000,-4.464994,-2.0876541,-8.910836199999999,-0.026202299999999998,-0.113407,0.0017408
47443,14:23:09.339000,-4.417111900000001,-2.1977827999999997,-8.819860499999999,-0.037197900000000006,-0.1378416,-0.0019244
47444,14:23:09.349000,-4.4314770999999995,-2.1283537999999997,-8.8366184,-0.04575,-0.158611,-0.0019244
47445,14:23:09.358000,-4.388382900000001,-2.082866,-8.7432489,-0.0433065,-0.1818239,0.005406
47446,14:23:09.368000,-4.4434476,-2.0493486,-8.8749237,-0.0543021,-0.1806021,0.0078495
47447,14:23:09.379000,-4.5846992,-2.0900483,-8.8246479,-0.0640759,-0.1744935,0.0066277
47448,14:23:09.386000,-4.555970200000001,-2.1044127999999995,-8.781554199999999,-0.0640759,-0.1744935,0.0066277
47449,14:23:09.399000,-4.5870929,-1.9966784,-8.781554199999999,-0.0689628,-0.20870189999999997,0.0029625999999999997
47450,14:23:09.407000,-4.508088099999999,-2.0158311999999996,-8.6570606,-0.0689628,-0.20870189999999997,0.0029625999999999997
47451,14:23:09.416000,-4.5272403,-1.9033084999999998,-8.6666374,-0.07873669999999999,-0.22947129999999996,-0.0031460999999999998
47452,14:23:09.426000,-4.4697824,-1.9464022,-8.568478599999999,-0.1007278,-0.23313649999999997,-0.0055896
47453,14:23:09.439000,-4.5463934,-1.8985202,-8.7647963,-0.1105016,-0.21481060000000002,-0.019028599999999996
47454,14:23:09.446000,-4.5200586,-2.1211715,-8.3793459,-0.131271,-0.1928194,-0.030024099999999998
47455,14:23:09.455000,-4.5416055,-1.9631610000000002,-8.633119599999999,-0.11783199999999999,-0.17693689999999998,-0.055680499999999994
47456,14:23:09.465000,-4.476964499999999,-1.7524803,-8.5924196,-0.0946192,-0.1561675,-0.058123900000000006
47457,14:23:09.474000,-4.4147182,-1.9823137999999998,-8.4487743,-0.10561469999999999,-0.1048549,-0.07644989999999999
47458,14:23:09.483000,-4.5918813,-1.8530324,-8.3506165,-0.0750715,-0.062094399999999994,-0.0752281
47459,14:23:09.493000,-4.486540799999999,-1.9392200000000002,-8.649879499999999,-0.0750715,-0.062094399999999994,-0.0752281
47460,14:23:09.505000,-4.7427095999999995,-2.0301956999999997,-8.582843800000001,-0.12394069999999999,-0.0401032,-0.05690219999999999
47461,14:23:09.513000,-4.8672032,-1.7788153999999998,-9.018569900000001,-0.1373797,-0.03277290000000001,-0.07644989999999999
47462,14:23:09.523000,-4.2998012999999995,-2.1642652,-8.5900259,-0.1703664,-0.0254425,-0.0630108
47463,14:23:09.535000,-4.512876,-2.1283537999999997,-8.7288837,-0.20335309999999998,0.0026573,-0.1143235
47464,14:23:09.544000,-4.7211623,-1.9009144,-8.6714258,-0.163036,0.023426699999999998,-0.1240973
47465,14:23:09.562000,-4.472176599999999,-1.9224613000000002,-8.7288837,-0.0885105,0.0197615,-0.0788933
47466,14:23:09.571000,-4.5176644,-1.79318,-8.6570606,-0.0689628,0.035644,-0.0691195
47467,14:23:09.581000,-4.5416055,-1.8650029,-8.6833963,-0.0640759,0.052748199999999995,-0.07034119999999999
47468,14:23:09.591000,-4.558363900000001,-1.8937321,-8.738459599999999,-0.0640759,0.052748199999999995,-0.07034119999999999
47469,14:23:09.599000,-4.5631518,-1.9487964,-8.788737300000001,-0.06774110000000001,0.0674089,-0.0691195
47470,14:23:09.609000,-4.6206107,-1.9775256,-8.7863417,-0.06651939999999999,0.0735176,-0.0654543
47471,14:23:09.620000,-4.606246,-1.9847078000000002,-8.7600069,-0.056745500000000004,0.0722959,-0.0654543
47472,14:23:09.629000,-4.5894876,-1.9320377,-8.7528248,-0.0408631,0.0661872,-0.0630108
47473,14:23:09.642000,-4.555970200000001,-1.8769734,-8.776765800000002,-0.0249806,0.0576351,-0.05690219999999999
47474,14:23:09.651000,-4.5631518,-1.8985202,-8.8438005,-0.011541599999999999,0.0441961,-0.0483501
47475,14:23:09.660000,-4.601458099999999,-1.8506383999999998,-8.8126774,-0.0237588,0.007544199999999999,-0.0373545
47476,14:23:09.669000,-4.5439997000000005,-1.9799197,-8.8821058,-0.0543021,-0.0010079000000000002,-0.0349111
47477,14:23:09.680000,-4.6158223,-1.989496,-8.7959194,-0.0604107,-0.0034514000000000003,-0.03857619999999999
47478,14:23:09.687000,-4.6230044,-1.8769734,-8.7719784,-0.07384980000000001,-0.0156687,-0.025137200000000002
47479,14:23:09.697000,-4.5368170999999995,-1.8314854999999999,-8.7791595,-0.072628,-0.0315511,-0.0373545
47480,14:23:09.706000,-4.529635,-1.9679491999999998,-8.7504311,-0.072628,-0.0315511,-0.0373545
47481,14:23:09.716000,-4.7067981,-1.817121,-8.7456427,-0.1007278,-0.043768400000000006,-0.047128300000000005
47482,14:23:09.726000,-4.642157599999999,-1.8626089,-8.774372099999999,-0.1080582,-0.058429199999999994,-0.0373545
47483,14:23:09.739000,-4.5176644,-1.9296436000000001,-8.8773184,-0.1129451,-0.07308989999999999,-0.0349111
47484,14:23:09.749000,-4.682857,-1.8482443,-8.791131,-0.1300493,-0.0828638,-0.0495718
47485,14:23:09.756000,-4.5487876,-1.8410618000000003,-8.6019974,-0.1349362,-0.0853072,-0.0446849
47486,14:23:09.765000,-4.6206107,-1.8434560000000002,-8.7791595,-0.16670120000000002,-0.0938593,-0.0520153
47487,14:23:09.775000,-4.5966697,-2.0206193999999997,-8.829436300000001,-0.1801402,-0.0901942,-0.058123900000000006
47488,14:23:09.783000,-4.8121386,-1.8027563999999998,-8.803100599999999,-0.17280979999999999,-0.09630280000000001,-0.05690219999999999
47489,14:23:09.793000,-4.7379217,-1.5681346999999999,-8.7600069,-0.17280979999999999,-0.09630280000000001,-0.05690219999999999
47490,14:23:09.807000,-4.776227,-1.4723707000000001,-8.7504311,-0.1691447,-0.1170722,-0.058123900000000006
47491,14:23:09.814000,-4.6660986,-1.5801051000000002,-8.599602699999998,-0.2204573,-0.15128060000000002,-0.09233229999999999
47492,14:23:09.824000,-4.5392108,-1.9272496,-8.6283321,-0.2204573,-0.15128060000000002,-0.09233229999999999
47493,14:23:09.835000,-4.5799112,-1.8961263,-8.6019974,-0.2461136,-0.1488372,-0.12287560000000002
47494,14:23:09.845000,-4.6780691,-1.7859976000000002,-8.597209,-0.23633979999999996,-0.1549458,-0.1216538
47495,14:23:09.856000,-4.828897,-1.5729228000000002,-8.6977606,-0.2143486,-0.16105450000000002,-0.1094366
47496,14:23:09.862000,-4.802562200000001,-1.623199,-8.700155300000002,-0.20335309999999998,-0.1622762,-0.1094366
47497,14:23:09.872000,-4.800168,-1.64714,-8.8438005,-0.22656590000000001,-0.1928194,-0.1521971
47498,14:23:09.881000,-4.7379217,-1.6974159,-8.700155300000002,-0.2485571,-0.2135888,-0.170523
47499,14:23:09.891000,-4.821714900000001,-1.7596626,-8.7695837,-0.2644396,-0.217254,-0.15586229999999998
47500,14:23:09.900000,-4.8193212,-1.7237511000000003,-8.7504311,-0.266883,-0.22947129999999996,-0.1680796
47501,14:23:09.909000,-4.9126905999999995,-1.6591103999999999,-8.8270416,-0.2705482,-0.24901900000000002,-0.15586229999999998
47502,14:23:09.920000,-4.8672032,-1.649534,-8.7959194,-0.2705482,-0.24901900000000002,-0.15586229999999998
47503,14:23:09.929000,-4.941420099999999,-1.551376,-8.76719,-0.2766568,-0.2710101,-0.1607492
47504,14:23:09.940000,-4.8600205999999995,-1.5992579,-8.599602699999998,-0.28520890000000004,-0.2954447,-0.15952750000000002
47505,14:23:09.952000,-4.7163744,-1.64714,-8.5493269,-0.2925393,-0.3137707,-0.1766317
47506,14:23:09.959000,-4.7546802,-1.6902337,-8.7983131,-0.2717699,-0.339427,-0.17174479999999998
47507,14:23:09.969000,-4.699616000000001,-1.8817616999999998,-8.7528248,-0.2290094,-0.3247662,-0.1314277
47508,14:23:09.979000,-4.8863554,-1.9009144,-8.7049427,-0.163036,-0.30155329999999997,-0.0788933
47509,14:23:09.987000,-5.0419722,-1.8003622,-8.7169142,-0.163036,-0.30155329999999997,-0.0788933
47510,14:23:09.997000,-5.0898538,-1.623199,-8.6355143,-0.11416680000000001,-0.2820057,-0.058123900000000006
47511,14:23:10.007000,-5.2741995,-1.2497194999999999,-8.6019974,-0.072628,-0.33820520000000004,-0.025137200000000002
47512,14:23:10.027000,-5.456151,-1.2209903999999998,-8.738459599999999,-0.072628,-0.33820520000000004,-0.025137200000000002
47513,14:23:10.040000,-5.343628400000001,-1.237749,-8.5924196,-0.1080582,-0.4054003,-0.0495718
47514,14:23:10.046000,-5.3268695,-1.2545078,-8.5660849,-0.1349362,-0.47015200000000007,-0.07156289999999998
47515,14:23:10.056000,-5.350810500000001,-1.4627944,-8.7408552,-0.1813619,-0.5190212000000001,-0.0972193
47516,14:23:10.065000,-5.5902205,-1.6088343999999999,-8.848588900000001,-0.24122670000000002,-0.5886598000000001,-0.098441
47517,14:23:10.075000,-5.7075315,-1.7141746999999998,-8.8126774,-0.2290094,-0.6130943,-0.0630108
47518,14:23:10.083000,-5.6165557,-1.4436415,-8.7959194,-0.2290094,-0.6130943,-0.0630108
47519,14:23:10.093000,-5.556703099999999,-1.4220946,-8.6833963,-0.189914,-0.6570766,-0.0422414
47520,14:23:10.103000,-5.7314725,-1.2760546,-8.669032099999999,-0.1703664,-0.691285,-0.0642326
47521,14:23:10.113000,-5.9086356,-1.2066257,-8.558902699999999,-0.1862489,-0.7108327,-0.055680499999999994
47522,14:23:10.122000,-5.9397588,-1.0342506999999999,-8.386528,-0.22656590000000001,-0.7242717,-0.0507935
47523,14:23:10.135000,-5.8248425,-1.0390389000000002,-8.0968418,-0.2742134,-0.7572584,-0.0544587
47524,14:23:10.146000,-5.891877200000001,-0.8834224,-7.9172845,-0.3352998,-0.8000189999999999,-0.07034119999999999
47525,14:23:10.154000,-5.8823004,-0.9025753000000001,-7.835885,-0.4195992,-0.8207884,-0.0972193
47526,14:23:10.162000,-5.8224478,-0.9935510000000001,-7.7449093,-0.5210028,-0.8293405,-0.125319
47527,14:23:10.172000,-5.843995099999999,-1.0342506999999999,-7.668298700000001,-0.7225881,-0.8293405,-0.20961839999999998
47528,14:23:10.181000,-5.9684882,-1.0174919,-7.708998200000001,-0.7225881,-0.8293405,-0.20961839999999998
47529,14:23:10.192000,-5.942153,-0.6607713000000001,-7.9508018,-0.7885615,-0.8061275999999999,-0.2181705
47530,14:23:10.202000,-6.1671987,-0.5362781,-7.7281508,-0.8252132999999999,-0.7731409,-0.21328360000000002
47531,14:23:10.210000,-6.160016099999999,-1.1300146999999998,-7.771244500000001,-0.8643086999999999,-0.7364890000000001,-0.1802969
47532,14:23:10.220000,-5.9852471,-1.0510093999999999,-7.687450900000001,-0.9339473,-0.7035024000000001,-0.1986228
47533,14:23:10.230000,-6.0786166,-0.7900524999999999,-7.9508018,-0.9608253000000001,-0.6705156999999999,-0.1851838
47534,14:23:10.240000,-6.385061299999999,-0.7565352,-7.874190799999999,-0.940056,-0.6143161,-0.1509753
47535,14:23:10.249000,-6.1504392999999995,-1.4173065,-7.7281508,-0.9107344,-0.5263515999999999,-0.10577139999999999
47536,14:23:10.260000,-6.0977697,-1.4651883999999997,-7.6515393,-0.8691957,-0.4286132,-0.08011510000000001
47537,14:23:10.269000,-6.0139761,-1.2784487,-7.6323872,-0.7848963000000001,-0.35042249999999997,-0.0495718
47538,14:23:10.280000,-6.0211587,-1.0366447,-7.4624062,-0.6920449000000001,-0.2600145,-0.0324676
47539,14:23:10.288000,-6.112133999999999,-0.6966828,-7.3522773,-0.6920449000000001,-0.2600145,-0.0324676
47540,14:23:10.299000,-6.334785500000001,-0.4500906,-7.342700999999999,-0.6138541999999999,-0.16471960000000002,-0.0153634
47541,14:23:10.309000,-5.9397588,1.8075444999999999,-7.5150762,-0.5417721,-0.013225200000000001,0.031062299999999998
47542,14:23:10.317000,-7.237360499999999,1.9176731,-6.8638811,-0.5417721,-0.013225200000000001,0.031062299999999998
47543,14:23:10.327000,-6.4784312,-0.5721896,-7.7042098,-0.6065238000000001,0.039309199999999996,0.2424215
47544,14:23:10.337000,-5.8368125,-0.6009188,-7.3235478,-0.8801912000000001,0.014874600000000002,0.0457231
47545,14:23:10.349000,-6.0331292,-0.8211759,-7.4767703999999995,-1.0206901,-0.0425467,0.040836199999999996
47546,14:23:10.356000,-6.4257612,-0.8738461,-7.7281508,-0.9620470999999999,0.0002138,0.1055878
47547,14:23:10.367000,-6.3730912,-0.9265162,-7.823914500000001,-0.7836746,0.1431562,0.1617874
47548,14:23:10.376000,-6.4329433,-0.7469588,-7.914890299999999,-0.6676103,0.17980810000000003,0.1715612
47549,14:23:10.385000,-6.607712299999999,-0.557825,-8.0561428,-0.5613198,0.2176817,0.21432179999999998
47550,14:23:10.393000,-6.796846400000001,-0.44051409999999996,-8.307522800000001,-0.49045950000000005,0.23967280000000002,0.2668561
47551,14:23:10.403000,-6.815999000000001,-0.3806617,-8.2931576,-0.49045950000000005,0.23967280000000002,0.2668561
47552,14:23:10.414000,-7.1463852,-0.49797250000000004,-9.4566898,-0.44159030000000005,0.243338,0.3132818
47553,14:23:10.425000,-6.854304300000001,-0.193922,-8.5708742,-0.3817256,0.3178635,0.35848579999999997
47554,14:23:10.434000,-6.672352799999999,-0.07661119999999999,-8.597209,-0.3010914,0.4815753,0.452559
47555,14:23:10.443000,-6.775299499999999,-0.15082820000000002,-8.7695837,-0.2815438,0.5060098,0.5564060000000001
47556,14:23:10.455000,-7.225389999999999,0.0502761,-8.846195199999999,-0.2656613,0.5255575,0.6077186
47557,14:23:10.463000,-7.167931599999999,-0.0311233,-8.9204121,-0.298648,0.5072315,0.7579913
47558,14:23:10.472000,-7.412129400000001,-0.14604,-9.2029161,-0.3194174,0.42293220000000004,0.8215213
47559,14:23:10.481000,-7.1032910000000005,0.059852499999999996,-9.0616636,-0.32308259999999994,0.32275040000000005,0.8374037
47560,14:23:10.491000,-6.8471227,0.1556164,-9.3681078,-0.32308259999999994,0.32275040000000005,0.8374037
47561,14:23:10.503000,-6.8926105,0.459667,-9.415989900000001,-0.2754351,0.1956905,0.8459558
47562,14:23:10.510000,-6.875851600000001,0.7086533,-9.521330800000001,-0.2754351,0.1956905,0.8459558
47563,14:23:10.520000,-7.0913205,0.9672159,-9.2819214,-0.2717699,0.15292999999999998,0.8386254999999999
47564,14:23:10.530000,-7.196661,0.7589293,-9.3154383,-0.2778786,0.0832914,0.8178561
47565,14:23:10.542000,-7.081744199999999,0.4500906,-9.377684599999998,-0.3291912,0.0026573,0.7983084
47566,14:23:10.561000,-6.3012681,0.217863,-9.1406689,-0.3902777,-0.1121853,0.7408871
47567,14:23:10.570000,-6.2318392,0.7541412,-8.8701363,-0.42204259999999993,-0.3858527,0.7091221
47568,14:23:10.580000,-6.3874555,1.7141746999999998,-8.6307259,-0.43425990000000003,-0.42128279999999996,0.7360002
47569,14:23:10.589000,-6.746570599999999,2.4060693,-8.2835817,-0.5026768,-0.46282159999999994,0.7702085999999999
47570,14:23:10.599000,-6.9141569,2.5832324,-8.216547,-0.5026768,-0.46282159999999994,0.7702085999999999
47571,14:23:10.607000,-6.7489643,2.5688679,-8.017836599999999,-0.6639451,-0.5666686,0.7860911
47572,14:23:10.617000,-6.739388000000001,2.2193296,-7.874190799999999,-0.8838564,-0.7010589,0.7946432
47573,14:23:10.628000,-6.583771700000001,1.8482443,-7.8334908,-1.0781114,-0.8452228999999999,0.8239646999999999
47574,14:23:10.638000,-6.4784312,1.4532180000000001,-7.649145599999999,-1.2308276000000002,-0.9588438,0.8435123999999999
47575,14:23:10.651000,-6.2916913,1.237749,-7.479164599999999,-1.328566,-1.0504735,0.822743
47576,14:23:10.657000,-6.0905871,1.1898671,-7.273272,-1.3676612,-1.1237773000000002,0.8056388000000001
47577,14:23:10.667000,-5.8990593,1.4819472,-6.9955564,-1.2870271,-1.2117417,0.7421088
47578,14:23:10.676000,-5.8463888,1.8027563999999998,-6.8183932,-1.206393,-1.2044115,0.7079004
47579,14:23:10.685000,-5.8631482,2.3462167000000003,-6.555042299999999,-1.1416414,-1.1836419,0.6761355
47580,14:23:10.694000,-5.8032956,2.7053316,-6.2078981,-1.1416414,-1.1836419,0.6761355
47581,14:23:10.704000,-5.6931671999999995,2.8801007000000003,-5.9397588,-1.0829983,-1.1311076,0.6016099
47582,14:23:10.714000,-5.499245200000001,2.9734707,-5.8823004,-1.0829983,-1.1311076,0.6016099
47583,14:23:10.726000,-5.4609389,2.9519238,-5.6811967,-1.070781,-1.0968993,0.5710666999999999
47584,14:23:10.735000,-5.3292642,2.9806529999999998,-5.5519152,-1.0524551000000002,-1.0468082,0.5441887
47585,14:23:10.747000,-5.209559,3.0165646,-5.317293599999999,-1.0231335,-0.9820565999999998,0.5063151
47586,14:23:10.756000,-5.0683069000000005,3.0668404,-5.2071648,-0.9754862,-0.9063094,0.4537807
47587,14:23:10.764000,-4.9797254,3.2033041,-4.8887496,-0.8337655,-0.7206066,0.3499337
47588,14:23:10.773000,-4.9940901,3.2775211000000004,-4.8336854,-0.7555748000000001,-0.6167595,0.290069
47589,14:23:10.782000,-4.9629664,3.4451079,-4.7283449,-0.6773840999999999,-0.5165777,0.22165210000000002
47590,14:23:10.792000,-4.9533906,3.5360837,-4.6613107000000005,-0.5991935,-0.4225045,0.15934389999999998
47591,14:23:10.800000,-4.900720099999999,3.6007245,-4.558363900000001,-0.5991935,-0.4225045,0.15934389999999998
47592,14:23:10.810000,-4.8815675,3.6797296999999998,-4.5032997,-0.519781,-0.3296531,0.1007009
47593,14:23:10.821000,-4.927054900000001,3.7587349000000003,-4.4697824,-0.35729099999999997,-0.1439503,-0.0312459
47594,14:23:10.832000,-4.9605727,3.9047748999999996,-4.369229799999999,-0.35729099999999997,-0.1439503,-0.0312459
47595,14:23:10.841000,-5.0060606,4.0029330000000005,-4.3596539000000005,-0.2705482,-0.052320500000000006,-0.09966269999999999
47596,14:23:10.854000,-5.1377358,4.1082735,-4.3428949999999995,-0.18869229999999998,0.0344222,-0.1729665
47597,14:23:10.860000,-5.097035900000001,3.952657,-4.3500776,-0.1214972,0.1162781,-0.2413833
47598,14:23:10.870000,-5.3532052000000006,3.7970405,-4.4745703,-0.000546,0.2604422,-0.3818822
47599,14:23:10.880000,-5.367569400000001,3.6270595,-4.5966697,-0.000546,0.2604422,-0.3818822
47600,14:23:10.891000,-5.4489684,3.3876498,-4.7020102,0.14972670000000002,0.3850586,-0.4991682
47601,14:23:10.898000,-5.5471268,3.1937277,-4.781014900000001,0.14972670000000002,0.3850586,-0.4991682
47602,14:23:10.908000,-5.5327621,3.0524758999999997,-4.8408675,0.24257820000000002,0.4559189,-0.5565895000000001
47603,14:23:10.921000,-5.597403,2.9423472999999998,-5.0276074,0.3403165,0.5255575,-0.6152326
47604,14:23:10.927000,-5.6285262000000005,2.8202484,-5.0946422,0.44294179999999994,0.6037481,-0.6689885999999999
47605,14:23:10.941000,-5.633314599999999,2.7077258,-5.1497064,0.5553409,0.6917127,-0.7105275
47606,14:23:10.950000,-5.5040331,2.6263263,-5.2526526,0.6689618,0.7882293,-0.7520663000000001
47607,14:23:10.960000,-5.310111,2.4826806,-5.317293599999999,0.7801391,0.8957415000000001,-0.7936051
47608,14:23:10.967000,-5.2765937,2.4012811000000003,-5.3747516,1.0159329,1.1840696000000002,-0.8717958
47609,14:23:10.984000,-5.216741099999999,2.4108574000000003,-5.4872746,1.1258886000000001,1.3538899,-0.8791261
47610,14:23:10.985000,-5.286169999999999,2.3797342999999995,-5.7697778,1.1258886000000001,1.3538899,-0.8791261
47611,14:23:10.996000,-5.4657273,2.1786296000000003,-6.1791692000000005,1.2590569999999999,1.6471052,-0.8473610999999999
47612,14:23:11.004000,-5.403481,1.6088343999999999,-6.638835899999999,1.2615005,1.7485087,-0.7703922
47613,14:23:11.014000,-5.286169999999999,0.8906046999999999,-6.710659,1.2786046999999998,1.8279212,-0.6702104
47614,14:23:11.023000,-4.9079027,0.3615089,-7.088926299999999,1.2786046999999998,1.8279212,-0.6702104
47615,14:23:11.033000,-5.5231862000000005,-0.5961305,-7.536623,1.3604604999999999,1.9195506999999998,-0.572472
47616,14:23:11.046000,-6.0570698,1.2257784999999999,-7.6419630000000005,1.4643075,2.0050719,-0.43441660000000004
47617,14:23:11.056000,-6.0810108,-0.0622466,-11.561102900000002,1.5009595,1.9769721000000002,-0.1045496
47618,14:23:11.063000,-5.2239237,0.0885817,-8.788737300000001,1.6915493000000001,2.1907747000000004,-0.13875810000000002
47619,14:23:11.073000,-6.052281400000001,-0.0933698,-9.3537436,1.9444473000000002,2.5621805,-0.4356383
47620,14:23:11.082000,-6.9141569,-0.004788199999999999,-10.0121212,2.0629551,2.6745796000000004,-0.3904343
47621,14:23:11.102000,-7.13202,-0.4165732,-10.5962811,2.0605116000000003,2.7014575,-0.1778534
47622,14:23:11.112000,-7.2421484,-0.5267016999999999,-11.5204029,2.1729107000000005,2.4021339,0.0335058
47623,14:23:11.121000,-7.6635098,-0.5769778,-11.446186099999998,2.1545846,2.1480141,0.011514700000000001
47624,14:23:11.131000,-8.5780563,-1.0988913999999999,-10.890754699999999,2.2303319,2.0551627,0.0970357
47625,14:23:11.143000,-7.1703253,-0.5697955,-10.7902031,2.5589771,1.868238,0.28762550000000003
47626,14:23:11.155000,-4.984513300000001,3.8592873,-9.2914972,2.8912876,1.6532136999999998,0.4904326
47627,14:23:11.161000,-0.2154689,0.7661116,-10.095913900000001,2.8302011,1.350225,0.5893927
47628,14:23:11.170000,-0.1436459,0.6751359,-12.6240826,2.4343607000000005,2.2054355,0.0493883
47629,14:23:11.181000,-2.9471354,0.3926322,-13.869013800000001,1.8613696,2.7320008,0.43911999999999995
47630,14:23:11.190000,-5.927788700000001,-0.44051409999999996,-14.797923999999998,1.4178818000000002,2.9604642000000005,0.6651399
47631,14:23:11.198000,-6.1959276,-0.8187817,-13.493141199999998,1.4178818000000002,2.9604642000000005,0.6651399
47632,14:23:11.210000,-4.005327200000001,-0.6488007,-10.8428726,1.1332189,2.8126349,0.5234193
47633,14:23:11.218000,-1.9871020000000001,-1.1419852,-8.8054953,1.0098243,2.3190562999999997,0.27785170000000003
47634,14:23:11.228000,-0.6368303000000001,-2.0469543999999997,-7.6802687999999995,0.6836225,1.8755683999999997,0.109253
47635,14:23:11.238000,-0.5961305,-2.2935464,-6.7729053,0.1778265,1.5823534,0.109253
47636,14:23:11.251000,-0.7900524999999999,-2.4922566,-6.868669500000001,-0.1324928,1.3709943000000002,0.244865
47637,14:23:11.258000,-1.0462211,-2.5712618999999997,-7.706604,-0.0762932,1.3392293,0.30106459999999996
47638,14:23:11.268000,-2.4850745,-1.6375635,-8.7169142,0.8913165000000001,1.6813135,0.3462685
47639,14:23:11.277000,-2.7508194,-1.2042316000000002,-9.246008900000001,1.3983341,1.625114,0.4415634
47640,14:23:11.286000,-2.2767880000000003,-1.1108619,-9.655400300000002,1.6267976,1.4870586000000001,0.4806588
47641,14:23:11.301000,-1.8841558,-1.4077301000000002,-10.3233538,1.5510503999999998,1.4003158000000002,0.53808
47642,14:23:11.307000,-1.6447458,-1.6806574,-10.9218779,1.5510503999999998,1.4003158000000002,0.53808
47643,14:23:11.316000,-1.3263308,-2.4060693,-11.6903839,0.9267466000000001,1.3685508,0.5637363000000001
47644,14:23:11.326000,-0.9983392,-3.1793633,-11.838817599999999,0.9267466000000001,1.3685508,0.5637363000000001
47645,14:23:11.336000,-0.5314899000000001,-3.0716287999999996,-11.8603649,0.5968796999999999,1.3868768,0.5063151
47646,14:23:11.347000,-0.509943,-2.3414285,-11.3097219,0.3280993,1.3563334999999999,0.4085767
47647,14:23:11.357000,-0.7397765000000001,-1.5394055,-10.5914927,0.1656092,1.31846,0.29739940000000004
47648,14:23:11.364000,-0.7924467,-1.1731083,-9.782286599999999,0.0031191999999999995,1.119318,0.1385745
47649,14:23:11.373000,-0.6535890000000001,-0.8929988000000001,-9.1981268,0.0031191999999999995,1.119318,0.1385745
47650,14:23:11.382000,-0.2633509,-1.1276205,-8.9395647,-0.08606710000000001,0.8248812,0.09337050000000001
47651,14:23:11.392000,-0.3806617,-1.4532180000000001,-9.3633204,-0.0982843,0.8224378000000001,0.1055878
47652,14:23:11.401000,-0.5697955,-1.8530324,-9.8253813,-0.0982843,0.8224378000000001,0.1055878
47653,14:23:11.411000,-0.6272539,-1.9559786,-10.1174612,-0.039641300000000004,0.8798590000000001,0.15079179999999998
47654,14:23:11.421000,-0.43333190000000005,-1.9248554,-10.208437,0.0971924,0.9201761,0.1776699
47655,14:23:11.432000,-0.1963161,-1.817121,-10.2036486,0.2230305,0.9165109,0.1715612
47656,14:23:11.444000,-0.0215469,-1.7596626,-10.1533728,0.2694562,0.8713069999999999,0.1471266
47657,14:23:11.453000,0.23462170000000002,-0.4788198,-10.198861099999998,0.22669570000000003,0.8004465999999999,0.12391379999999999
47658,14:23:11.460000,-0.1532223,-2.8968594,-12.5977478,0.1094097,0.7466904999999999,0.0945923
47659,14:23:11.470000,0.4429083,-1.6399577,-11.7023554,-0.8936303,0.5108967000000001,-0.0116982
47660,14:23:11.480000,0.5650073,-1.5585582,-10.6297979,-0.8936303,0.5108967000000001,-0.0116982
47661,14:23:11.489000,0.1987102,-1.5705287,-10.2228022,-0.4073819,0.2848768,-0.030024099999999998
47662,14:23:11.499000,0.22025709999999998,-1.6136225,-9.935509699999999,-0.4073819,0.2848768,-0.030024099999999998
47663,14:23:11.508000,0.30883879999999997,-1.7189629000000002,-10.1844959,-0.2815438,0.2408945,-0.019028599999999996
47664,14:23:11.519000,0.40220859999999997,-1.6543223000000002,-10.186889599999999,-0.23389629999999997,0.2225686,-0.03613280000000001
47665,14:23:11.529000,0.33756790000000003,-1.6160166,-10.2419538,-0.20824,0.2164599,-0.0324676
47666,14:23:11.538000,0.4141791,-1.575317,-10.3975706,-0.1752533,0.1822515,-0.0226938
47667,14:23:11.550000,0.387844,-1.5657406,-10.452634800000002,-0.12394069999999999,0.13338239999999998,-0.0165851
47668,14:23:11.557000,0.3998145,-1.5801051000000002,-10.4478474,-0.0604107,0.0674089,-0.019028599999999996
47669,14:23:11.567000,0.36629709999999993,-1.6160166,-10.301807400000001,0.11429660000000001,-0.062094399999999994,-0.021472
47670,14:23:11.577000,0.43333190000000005,-1.649534,-10.208437,0.19004379999999998,-0.1109636,-0.0239155
47671,14:23:11.587000,0.3806617,-1.6686869,-10.143796,0.24257820000000002,-0.1500589,-0.0165851
47672,14:23:11.597000,0.3998145,-1.7237511000000003,-10.048031800000002,0.27556479999999994,-0.18426729999999997,-0.0068113
47673,14:23:11.604000,0.35672070000000006,-1.7333275000000001,-10.021697,0.27556479999999994,-0.18426729999999997,-0.0068113
47674,14:23:11.619000,0.2633509,-1.7524803,-10.0001497,0.2902256,-0.21114539999999998,0.0017408
47675,14:23:11.626000,0.3112328,-1.7572685000000001,-9.9498739,0.28656040000000005,-0.23313649999999997,0.012736399999999998
47676,14:23:11.638000,0.217863,-1.4340651000000002,-9.9211454,0.2718997,-0.25024070000000004,0.0212885
47677,14:23:11.645000,0.038305599999999995,-1.4771589,-10.060003300000002,0.2474651,-0.2612363,0.0335058
47678,14:23:11.656000,0.1005521,-1.8051505,-10.1653433,0.16316570000000002,-0.2832274,0.0811532
47679,14:23:11.664000,0.2944742,-2.0756836,-10.162948599999998,0.026332099999999997,-0.33209659999999996,0.12880070000000002
47680,14:23:11.675000,0.32559740000000004,-2.1762357000000003,-10.162948599999998,-0.0750715,-0.3125489,0.059162099999999995
47681,14:23:11.685000,0.1915279,-2.0182252,-9.9881802,-0.0530804,-0.275897,0.024953700000000002
47682,14:23:11.706000,-0.007182300000000001,-1.6519281000000003,-9.8301687,-0.026202299999999998,-0.21603229999999998,-0.0226938
47683,14:23:11.712000,-0.0502761,-1.5633465,-9.7798929,-0.027424,-0.1928194,-0.0373545
47684,14:23:11.723000,-0.07421710000000001,-1.5394055,-9.7487698,-0.027424,-0.1928194,-0.0373545
47685,14:23:11.736000,-0.0646407,-1.6279871000000001,-9.8086233,-0.0298675,-0.17205,-0.043463199999999994
47686,14:23:11.743000,-0.09097569999999999,-1.7405096999999998,-9.7559519,-0.0359761,-0.1500589,-0.043463199999999994
47687,14:23:11.755000,-0.019152799999999998,-1.79318,-9.796651800000001,-0.034754400000000005,-0.12684600000000001,-0.03613280000000001
47688,14:23:11.761000,0.0813994,-1.8051505,-9.767923399999999,-0.0176502,-0.1036332,-0.0373545
47689,14:23:11.771000,0.10773440000000001,-1.7261453000000002,-9.9546633,0.03854930000000001,-0.0339946,-0.043463199999999994
47690,14:23:11.780000,0.0670348,-1.6854455000000002,-9.9259329,0.076423,0.0051007,-0.0459066
47691,14:23:11.790000,0.0670348,-1.7045983,-10.024090800000002,0.1069662,0.035644,-0.0520153
47692,14:23:11.800000,0.0933698,-1.6758691000000003,-10.062397,0.1228487,0.0686307,-0.0642326
47693,14:23:11.809000,0.1484341,-1.7261453000000002,-10.1485853,0.1228487,0.0686307,-0.0642326
47694,14:23:11.819000,0.14604,-1.6567163,-10.124644300000002,0.13017910000000002,0.1016174,-0.0727847
47695,14:23:11.829000,0.2370158,-1.8386679,-10.0264864,0.14972670000000002,0.12849539999999998,-0.0727847
47696,14:23:11.838000,0.11731079999999999,-1.9871020000000001,-10.1414022,0.1729396,0.1504866,-0.0740064
47697,14:23:11.849000,0.21068070000000003,-2.130748,-10.162948599999998,0.1778265,0.17980810000000003,-0.08011510000000001
47698,14:23:11.859000,0.193922,-2.2935464,-10.2443485,0.20470460000000001,0.1956905,-0.0630108
47699,14:23:11.868000,0.2154689,-2.422828,-10.297019,0.38063359999999996,0.2017992,-0.012919899999999998
47700,14:23:11.878000,0.1891338,-2.5473211,-10.5962811,0.4979196,0.2017992,0.0102929
47701,14:23:11.888000,0.16758689999999998,-2.6023853,-10.7614737,0.6237577,0.16759079999999998,0.0481665
47702,14:23:11.898000,0.13885770000000003,-2.4084632000000004,-10.862026199999999,0.7373786,0.1003956,0.0982574
47703,14:23:11.907000,-0.0694289,-2.3462167000000003,-10.7925968,0.7373786,0.1003956,0.0982574
47704,14:23:11.916000,-0.1532223,-2.300729,-10.806962,0.771587,0.007544199999999999,0.1336876
47705,14:23:11.926000,-0.11731079999999999,-2.327064,-10.869208300000002,0.6958398,-0.11585050000000001,0.14223970000000002
47706,14:23:11.936000,-0.047882,-2.3581872,-10.9218779,0.39529440000000005,-0.43960879999999997,0.13735279999999997
47707,14:23:11.949000,-0.055064300000000004,-2.2983347999999997,-11.0774946,0.39529440000000005,-0.43960879999999997,0.13735279999999997
47708,14:23:11.957000,-0.023941,-2.183418,-11.103830300000002,0.2938908,-0.5996553000000001,0.1324659
47709,14:23:11.965000,-0.11252260000000001,-2.1403244,-11.1804409,0.2535737,-0.7499281,0.12880070000000002
47710,14:23:11.974000,-0.1723751,-2.159477,-11.175653500000001,0.17538299999999998,-1.0565822,0.14223970000000002
47711,14:23:11.984000,-0.241804,-2.1882062,-11.1804409,0.1118531,-1.2056332,0.1532353
47712,14:23:11.994000,-0.3830558,-2.3318522,-11.108617800000001,0.015336500000000001,-1.3607928999999999,0.1740047
47713,14:23:12.003000,-0.5410663,-2.4347985,-10.9410315,-0.104393,-1.5171742,0.19843929999999999
47714,14:23:12.013000,-0.7828703,-2.5999912999999997,-10.8428726,-0.2326746,-1.6784424999999998,0.22165210000000002
47715,14:23:12.022000,-1.0581916999999998,-2.5880208,-10.7590799,-0.2326746,-1.6784424999999998,0.22165210000000002
47716,14:23:12.032000,-1.4005477,-2.7316667999999997,-10.845267300000001,-0.3560692,-1.8482628,0.2485302
47717,14:23:12.043000,-1.5992579,-2.813066,-10.5579748,-0.47824220000000006,-2.0376308,0.2839603
47718,14:23:12.052000,-1.5370114,-2.8394009999999996,-9.9762087,-0.6077454999999999,-2.2343295,0.3499337
47719,14:23:12.065000,-1.5920756,-2.422828,-9.4040203,-0.687158,-2.3699412,0.39758119999999997
47720,14:23:12.071000,-1.5226468,-1.9847078000000002,-9.0065994,-0.4208209,-2.4285843,0.4427852
47721,14:23:12.081000,-1.7740271,-1.6686869,-8.910836199999999,-0.1337145,-2.3601674999999998,0.42079399999999995
47722,14:23:12.091000,-2.47071,-1.4436415,-8.4224386,0.1069662,-2.2612072999999997,0.3535989
47723,14:23:12.100000,-3.5791779000000004,-1.4340651000000002,-8.788737300000001,0.1069662,-2.2612072999999997,0.3535989
47724,14:23:12.112000,-4.1872787,-1.6591103999999999,-9.3345909,0.09963580000000001,-2.2306642999999995,0.3816987
47725,14:23:12.120000,-4.3093777,-2.2767880000000003,-10.1797075,-0.8838564,-2.4420233,0.5759536999999999
47726,14:23:12.130000,-4.316559799999999,-3.1865456,-11.003277800000001,-0.8838564,-2.4420233,0.5759536999999999
47727,14:23:12.139000,-4.0292683,-2.473104,-10.416724199999999,-2.1642289,-2.6032917,0.44522860000000003
47728,14:23:12.148000,-4.2638898,-2.9950175,-10.1725264,-2.1642289,-2.6032917,0.44522860000000003
47729,14:23:12.162000,-4.137002900000001,-3.0931754000000002,-10.890754699999999,-2.4892089,-2.6313915,0.172783
47730,14:23:12.181000,-5.063519,-2.9495296000000004,-9.370502499999999,-2.8215194,-2.6582694,0.2546388
47731,14:23:12.181000,-5.9325767,-2.1906002,-7.9388312999999995,-2.8215194,-2.6582694,0.2546388
47732,14:23:12.197000,-3.8904104,1.7165686999999998,-7.0865326,-2.8215194,-2.6582694,0.2546388
47733,14:23:12.208000,-3.8233757000000006,2.7675784,-6.6627769,-0.37195170000000005,-2.3369546000000003,0.4488938
47734,14:23:12.215000,-3.6294537000000004,3.1793633,-9.827775,-0.149597,-2.0865002,0.7665434
47735,14:23:12.226000,-7.2445431,4.3261366,-11.0487661,-0.7946701,-1.8262718,0.7897563
47736,14:23:12.235000,-8.6283321,4.390777099999999,-10.062397,-1.3737698999999999,-1.4744136,0.8471776
47737,14:23:12.247000,-7.373824099999999,3.4977782,-9.6961002,-1.4739517,-1.3937795,0.8801643
47738,14:23:12.259000,-7.225389999999999,1.3263308,-8.6522732,-1.7048584999999998,-1.4817441,0.7176743
47739,14:23:12.265000,-7.1631436,0.217863,-6.4425197,-2.0249517,-1.3216975,0.7836477
47740,14:23:12.274000,-5.6764078,-0.7349883,-5.3962984,-2.2338674,-1.1921941999999999,0.9461377000000001
47741,14:23:12.284000,-5.9828529,-1.4125183000000001,-5.3053231,-2.2973974,-0.9967174000000001,1.0145546
47742,14:23:12.294000,-7.366642,-1.601652,-5.8583593,-2.2912886,-0.6998371,1.2576787
47743,14:23:12.303000,-8.5110207,-1.1467732,-6.4856133,-2.2949537999999996,-0.36263979999999996,1.4800335
47744,14:23:12.312000,-9.147851,-0.1149167,-7.2086315,-2.2338674,-0.1378416,1.5386765
47745,14:23:12.324000,-8.5612974,1.5585582,-7.8550382,-2.1129162,-0.1537241,1.5166853999999999
47746,14:23:12.335000,-8.503838499999999,3.3062503,-8.0657187,-1.8478009999999998,-0.3638616,1.4800335
47747,14:23:12.345000,-9.0975752,4.5942755,-8.2237291,-1.491056,-0.5947684,1.4580423999999998
47748,14:23:12.354000,-8.7791595,5.2071648,-7.823914500000001,-1.2821403,-0.795132,1.4971377000000001
47749,14:23:12.365000,-8.822254199999998,5.875118700000001,-8.1231766,-1.3029096000000002,-1.0455866,1.6681799
47750,14:23:12.372000,-10.0839443,6.4066081,-8.3769512,-2.4452267000000005,-1.3742318,2.1373238999999997
47751,14:23:12.381000,-9.4902067,6.3252090999999995,-7.936437599999999,-2.9888961,-1.7334201,2.3706741
47752,14:23:12.391000,-8.700155300000002,6.3156323,-8.1351471,-3.5582220999999996,-1.9655488,2.5979159
47753,14:23:12.401000,-8.216547,6.7729053,-7.505499400000001,-4.089674,-2.0926087,2.9424436000000003
47754,14:23:12.413000,-9.801440199999998,8.3410397,-8.1255713,-4.089674,-2.0926087,2.9424436000000003
47755,14:23:12.420000,-10.598674800000001,9.257980300000002,-9.080817199999998,-4.4818492,-2.1500299,4.0908694
47756,14:23:12.429000,-11.2187471,10.1821022,-10.4119349,-4.4818492,-2.1500299,4.0908694
47757,14:23:12.439000,-10.562764199999998,10.5388231,-9.9139633,-4.578365799999999,-2.1891252999999997,4.4830445999999995
47758,14:23:12.449000,-9.8493223,10.337717999999999,-9.4040203,-4.6736608,-2.3870456,4.7396078
47759,14:23:12.462000,-7.409735700000001,8.5277796,-7.048226400000001,-4.6748824,-2.4737883,5.0059447
47760,14:23:12.469000,-4.852837999999999,4.7546802,-5.8870888,-4.125104400000001,-1.7798459999999998,5.266172900000001
47761,14:23:12.478000,-4.699616000000001,3.1578162,-6.7561464,-3.4482665,-0.7218283000000001,5.448210700000001
47762,14:23:12.488000,-5.942153,2.7244842,-9.5237246,-2.380475,0.0845132,5.6485744
47763,14:23:12.498000,-7.0314679,4.9079027,-8.3697691,-1.1367544,0.2470032,5.8354988
47764,14:23:12.509000,-5.8368125,7.5677462,-8.0130482,-1.1367544,0.2470032,5.8354988
47765,14:23:12.516000,-4.1274261,8.604391099999999,-8.051354400000001,-0.1324928,0.12238679999999999,5.1940908
47766,14:23:12.526000,-2.8441892,9.234039300000001,-8.3458281,-0.1324928,0.12238679999999999,5.1940908
47767,14:23:12.536000,-1.9080968,8.8126774,-8.8270416,-0.5136724,0.21523820000000002,4.8373460999999995
47768,14:23:12.546000,-1.6040461000000001,7.776032400000001,-8.8868952,-1.0158032,0.3801717,4.6443129
47769,14:23:12.558000,-1.8458501,7.6994214,-8.300340700000001,-1.3249007,0.6110786,4.4720488
47770,14:23:12.568000,-1.5441937,7.4767703999999995,-7.941225500000001,-1.5325947,0.7149255,4.3657584
47771,14:23:12.575000,-1.8075444999999999,7.6706924,-7.6323872,-2.1605637000000004,0.6660564,4.1580644
47772,14:23:12.584000,-1.2473254999999999,7.5031056,-5.9469414,-2.1605637000000004,0.6660564,4.1580644
47773,14:23:12.594000,-0.4165732,7.2469368,-4.3955655,-2.6382599,1.0069189,4.0737653
47774,14:23:12.603000,0.411785,7.1224441999999994,-2.66942,-2.6382599,1.0069189,4.0737653
47775,14:23:12.613000,0.3208092,6.3730912,-1.9296436000000001,-2.6688032,1.4027593,3.9723616
47776,14:23:12.623000,0.48839620000000006,5.3364458,-0.8259639999999999,-2.4097965,1.8303645,4.0212307
47777,14:23:12.633000,0.7732939,4.2734666,-0.8331464,-1.9137743000000003,2.3166127,4.3327718
47778,14:23:12.642000,1.1348027,3.7946465,-1.1060736,-1.2247188999999998,2.9751251,4.643091200000001
47779,14:23:12.655000,2.0541368,3.9191399,-0.2992623,-0.5173376000000001,3.5872114,4.7628207
47780,14:23:12.664000,3.7898582999999997,3.2775211000000004,0.387844,-0.1935792,3.9378479,4.5991087
47781,14:23:12.672000,4.2830424,3.4690489999999996,-0.7828703,-1.0194684,4.3935533,3.8416364
47782,14:23:12.681000,5.2646232,1.6519281000000003,-0.9839745999999999,-1.0194684,4.3935533,3.8416364
47783,14:23:12.691000,2.0469543999999997,5.595008900000001,1.1946553,-1.7561712,3.8816483,3.2906364999999997
47784,14:23:12.701000,1.5992579,6.815999000000001,2.473104,-1.7867144,3.3734087999999995,3.1953416
47785,14:23:12.720000,4.156155600000001,5.0922480000000006,0.6847122,-2.6052732000000005,3.0117769,2.0994502999999995
47786,14:23:12.729000,4.5631518,4.0005388,-0.8618754999999999,-2.6052732000000005,3.0117769,2.0994502999999995
47787,14:23:12.739000,3.7515528,5.9613061,-2.5568974,-2.5967212,2.8920474,1.6877275
47788,14:23:12.750000,4.0819383,6.583771700000001,-2.2456646,-2.4195702,2.7344444,1.581437
47789,14:23:12.762000,4.9773316,7.002739,-1.9823137999999998,-2.1691158,2.4510031000000003,1.4042863
47790,14:23:12.769000,5.2406821,7.876585,-1.0557975,-2.0310605,2.3398256,0.9656853000000001
47791,14:23:12.784000,5.5662794,7.9388312999999995,0.8882107,-1.7757188999999998,2.424125,0.36703790000000003
47792,14:23:12.788000,5.633314599999999,7.936437599999999,1.8554264999999999,-1.7219628,2.3459343999999995,0.4134637
47793,14:23:12.798000,5.037183799999999,7.0506210000000005,2.3222756,-1.8942265999999999,2.2200961,0.6749137
47794,14:23:12.807000,4.582305,5.391510500000001,2.5281682,-2.0897033,2.171227,0.7543262
47795,14:23:12.820000,4.2854371,4.2184019,5.539944599999999,-2.2485282000000004,2.1663401,0.7286698
47796,14:23:12.828000,3.4044084999999997,3.7012767999999996,5.5662794,-2.2485282000000004,2.1663401,0.7286698
47797,14:23:12.836000,3.1434517000000004,4.2112193,5.1832242,-2.4378963,2.2188745,0.7860911
47798,14:23:12.846000,3.8592873,4.759468599999999,5.3891163,-2.5710647,2.1614532000000004,0.7738738000000001
47799,14:23:12.859000,4.2279787,5.3268695,5.295746299999999,-2.4769917,1.9659765,0.5038716
47800,14:23:12.869000,3.7850699,5.4106631,5.685984599999999,-2.3609272999999997,1.7839388999999999,0.45744589999999996
47801,14:23:12.875000,2.9758646,5.039578,5.654861,-2.1813331000000002,1.7338479,0.8679469999999999
47802,14:23:12.885000,2.0541368,4.3788066,6.1648045,-2.1385725,1.7558391,1.0829715
47803,14:23:12.895000,1.8745793999999998,3.9406865,5.8152661,-2.1153598,1.7570608,1.1746011
47804,14:23:12.903000,2.300729,3.5743894999999997,6.2102919000000005,-2.1153598,1.7570608,1.1746011
47805,14:23:12.915000,2.9686825,3.4475021,5.5926147,-2.1153598,1.7570608,1.0817497
47806,14:23:12.923000,3.1578162,4.1800966,5.7625957,-2.005404,1.7521738999999998,0.9620200999999999
47807,14:23:12.933000,2.9016478,4.3572593,6.1624098,-1.8612398999999997,1.7668345,0.9571332
47808,14:23:12.943000,1.9224613000000002,3.8305580999999997,6.6508064,-1.6901978,1.7985995,0.9436941999999999
47809,14:23:12.956000,0.8379346,5.0276074,7.627598299999999,-1.5362599,1.7802737000000002,0.9962285
47810,14:23:12.967000,1.3406953000000001,4.675674900000001,8.7169142,-1.2931358,1.5493667,1.0841931
47811,14:23:12.973000,2.5257742000000003,4.6684923,9.463872,-0.8924084999999999,1.1779611,0.46355459999999993
47812,14:23:12.982000,2.7939133999999997,4.464994,9.0975752,-0.8447610000000001,1.0435708000000001,0.2815169
47813,14:23:12.991000,2.7484252000000002,3.8473167,9.310649900000001,-0.8814129999999999,0.9837060999999999,0.39758119999999997
47814,14:23:13.001000,2.6646321,3.7012767999999996,8.9156237,-0.9938120999999999,1.0667837,0.4721067
47815,14:23:13.010000,2.0278015,3.8688636,8.1255713,-0.9938120999999999,1.0667837,0.4721067
47816,14:23:13.020000,1.6255928999999998,3.5504483999999996,7.6108398,-1.0781114,1.1437526000000002,0.5991665
47817,14:23:13.029000,1.26169,5.0707011,8.307522800000001,-1.0597855,1.0899966,0.6492574000000001
47818,14:23:13.039000,2.2456646,3.9167454,8.233305900000001,-0.9510514999999999,0.911624,0.6626964
47819,14:23:13.049000,2.1475065,3.9335042999999996,7.9891076000000005,-0.908291,0.6697215,0.3902508
47820,14:23:13.062000,2.0469543999999997,3.5815718,7.893343400000001,-0.8972955,0.6978213000000001,0.330386
47821,14:23:13.069000,2.0589249,3.4642611000000003,7.5031056,-0.9302821,0.7332515000000001,0.47332840000000004
47822,14:23:13.079000,2.1092009999999997,3.3613148,7.407341499999999,-0.9412777,0.7552426,0.5417451999999999
47823,14:23:13.088000,2.1762357000000003,3.2679447999999995,7.8454614000000005,-0.8936303,0.7735685999999999,0.5319714
47824,14:23:13.099000,2.2767880000000003,3.6079068,8.290763900000002,-0.8093309,0.7833424,0.5417451999999999
47825,14:23:13.108000,2.3749461,3.8329519999999997,8.8126774,-0.7189229,0.7882293,0.5857275
47826,14:23:13.116000,2.3773401,3.9143515,9.2603741,-0.7189229,0.7882293,0.5857275
47827,14:23:13.127000,2.1666594,3.9742040999999997,9.2843151,-0.6407322,0.8041118,0.6407053
47828,14:23:13.136000,2.0852599,3.6988826,9.1023626,-0.6419539000000001,0.8419853999999999,0.7127873
47829,14:23:13.148000,2.0732894,3.1626046000000003,8.989841499999999,-0.7018187,0.9030719000000001,0.7616565
47830,14:23:13.158000,2.2600293,2.6215382000000003,8.910836199999999,-0.7372489000000001,0.9604931000000001,0.7555479
47831,14:23:13.168000,2.4395863999999996,2.4850745,9.0520868,-0.6749406,1.0069189,0.718896
47832,14:23:13.176000,2.592809,2.6287205,9.4949961,-0.18258370000000002,1.0105841,0.6785789000000001
47833,14:23:13.185000,2.6335083999999997,2.9088298999999997,10.071972800000001,-0.18258370000000002,1.0105841,0.6785789000000001
47834,14:23:13.195000,2.4347985,3.2870975,10.2180128,0.20592629999999998,0.970267,0.7641
47835,14:23:13.217000,1.9583727,4.010115600000001,9.789469699999998,0.20592629999999998,0.970267,0.7641
47836,14:23:13.226000,1.9751314999999998,3.8425286,9.5476656,0.09352719999999999,0.8932981,0.836182
47837,14:23:13.233000,1.9296436000000001,3.5456602999999998,9.487813000000001,-0.051858600000000005,0.8468724,0.7873128
47838,14:23:13.243000,1.8937321,3.1697867000000004,9.588364599999998,-0.18258370000000002,0.8248812,0.7384437
47839,14:23:13.254000,1.8650029,2.9088298999999997,9.5907602,-0.2705482,0.8053336,0.7091221
47840,14:23:13.263000,1.7716331000000003,2.6622376,9.712859199999999,-0.2949828,0.730808,0.6468139
47841,14:23:13.279000,1.6327753999999999,2.5975973999999997,9.8325644,-0.2766568,0.6611695,0.6199359
47842,14:23:13.282000,1.6040461000000001,2.6718142000000005,9.997755999999999,-0.2815438,0.5756484000000001,0.5979448
47843,14:23:13.291000,1.6758691000000003,2.5090156,10.136613800000001,-0.3133087,0.48279700000000003,0.5502973000000001
47844,14:23:13.300000,1.7117807,2.422828,10.150979,-0.34629540000000003,0.4204888,0.497763
47845,14:23:13.310000,1.5824993,2.3126995999999997,10.0983086,-0.34629540000000003,0.4204888,0.497763
47846,14:23:13.320000,1.3263308,2.4371924,10.1557674,-0.3365216,0.3264156,0.4684415
47847,14:23:13.331000,1.2257784999999999,2.2217238,10.210830699999999,-0.3365216,0.3264156,0.4684415
47848,14:23:13.340000,1.1778966,2.0517426,10.2347717,-0.3145305,0.2555553,0.43301130000000004
47849,14:23:13.350000,1.2832369,1.7117807,10.2180128,-0.298648,0.1761429,0.38536390000000004
47850,14:23:13.362000,1.3359071000000002,1.5082823,10.1294317,-0.2778786,0.0796262,0.3157253
47851,14:23:13.369000,1.3813950000000002,1.2736604999999999,10.016908599999999,-0.2290094,-0.0156687,0.2570823
47852,14:23:13.380000,1.333513,1.1994434999999999,9.8995981,-0.0213154,-0.190376,0.1764481
47853,14:23:13.389000,1.4508239,1.139591,9.7032824,0.1118531,-0.2930012,0.1190268
47854,14:23:13.400000,1.9464022,0.8427228000000001,9.2603741,0.252352,-0.4054003,0.0200668
47855,14:23:13.410000,2.8609481,-0.3615089,8.7145185,0.252352,-0.4054003,0.0200668
47856,14:23:13.417000,3.7874641000000002,-1.1419852,8.168664900000001,0.4001813,-0.5068039000000001,-0.12287560000000002
47857,14:23:13.428000,4.6948276,-1.1659261,8.0968418,0.6885095,-0.5263515999999999,-0.2413833
47858,14:23:13.437000,5.116189,-1.0749503,8.1040249,1.1491014,-0.5043604,-0.3452303
47859,14:23:13.447000,4.8504438,-0.45727290000000004,8.1806355,1.6695581999999998,-0.4127307,-0.43930349999999996
47860,14:23:13.461000,3.9909625,1.3047838,8.9156237,2.2010104999999998,-0.21236710000000003,-0.35866929999999997
47861,14:23:13.466000,1.9296436000000001,3.5648129,9.935509699999999,2.5882986,-0.0853072,-0.1485319
47862,14:23:13.476000,-0.2920801,5.343628400000001,10.060003300000002,2.1301501,-0.1537241,0.23142600000000002
47863,14:23:13.485000,-0.2992623,5.080277400000001,10.2156191,1.3592389,-0.40784380000000003,0.13490929999999998
47864,14:23:13.495000,0.6895005,4.7953801,10.194071800000001,0.609097,-0.6448593,-0.5492592
47865,14:23:13.504000,1.9679491999999998,4.0460272,10.0097265,0.058097,-0.8146797,-1.1931106000000002
47866,14:23:13.514000,2.786731,4.065179799999999,9.0856047,0.058097,-0.8146797,-1.1931106000000002
47867,14:23:13.524000,3.3086444999999998,3.8568931000000006,8.5517206,-0.4208209,-0.8782097,-1.5095383999999998
47868,14:23:13.533000,2.9902293999999996,3.1961217,9.827775,-0.8362089,-0.8574402,-1.7270063000000002
47869,14:23:13.544000,1.5394055,3.2296392999999997,9.6745529,-1.043903,-0.6839546999999999,-1.9713522
47870,14:23:13.556000,0.6200716,2.5616858,8.884499499999999,-1.1660758999999998,-0.46282159999999994,-1.8882746
47871,14:23:13.565000,0.4692433,2.279182,8.305128100000001,-1.2479318000000001,-0.3553094,-1.7880927
47872,14:23:13.573000,0.8570873999999999,3.5097487000000003,8.1734533,-1.1147633,-0.3724136,-2.0984119999999997
47873,14:23:13.582000,1.503494,4.606246,8.5110207,-0.6834928000000001,-0.8562185,-2.6249773999999997
47874,14:23:13.592000,1.9033084999999998,4.6684923,8.810282699999998,-0.6712755,-1.0297041,-2.5247955
47875,14:23:13.601000,1.9511904999999998,4.0172977,9.0784216,-0.7079273,-1.0541387,-2.2621238
47876,14:23:13.610000,2.1163833,3.4858077000000005,9.222067800000001,-0.7079273,-1.0541387,-2.2621238
47877,14:23:13.621000,2.2767880000000003,3.5073547,9.0281458,-0.46724659999999996,-1.0077129999999999,-1.9029353999999998
47878,14:23:13.630000,2.4611335,4.0316625,8.005866099999999,-0.46724659999999996,-1.0077129999999999,-1.9029353999999998
47879,14:23:13.640000,2.2576351000000003,5.5543089000000005,7.239754700000001,-0.1813619,-0.9148615,-1.8198577
47880,14:23:13.650000,1.6710808000000001,6.2653565,7.220602,0.089862,-0.7792495,-1.6756936000000002
47881,14:23:13.662000,0.9576395000000001,6.1743803,6.868669500000001,0.3061081,-0.6754026,-1.4374563999999999
47882,14:23:13.670000,0.8906046999999999,5.5495209999999995,6.4305490999999995,0.38307709999999995,-0.6130943,-1.1576803999999998
47883,14:23:13.680000,1.2569019,4.235160400000001,6.289297599999999,0.4478287,-0.5116907999999999,-1.0086294
47884,14:23:13.689000,1.721357,3.3421616999999997,5.8583593,0.7874694999999999,-0.41028729999999997,-0.9927469000000001
47885,14:23:13.699000,2.1906002,3.270339,5.772172,1.3677909,-0.3638616,-0.8754609
47886,14:23:13.716000,2.8824949,5.990035099999999,6.657988499999999,2.6689328999999997,-0.34309209999999996,-0.6665452
47887,14:23:13.728000,2.5018332,7.4312825,7.148778900000001,2.6689328999999997,-0.34309209999999996,-0.6665452
47888,14:23:13.738000,1.8314854999999999,8.1112061,7.5007114,2.8973963,-0.18426729999999997,-0.5480374
47889,14:23:13.746000,1.6208049,7.6323872,7.5007114,2.6848153999999997,-0.058429199999999994,-0.3440086
47890,14:23:13.760000,1.6543223000000002,7.0194974000000006,7.0171037,2.2694273,0.0417526,-0.3073567
47891,14:23:13.768000,1.8793674999999999,6.7657232,6.607712299999999,1.7599661,0.1162781,-0.3769953
47892,14:23:13.777000,2.1953886000000002,6.993162599999999,6.1456513,1.2248486,0.2176817,-0.48206400000000005
47893,14:23:13.786000,2.5281682,6.8375459,5.8870888,1.1723143,0.2421163,-0.49672479999999997
47894,14:23:13.796000,2.7699722999999996,6.569407000000001,5.5997968,1.1698707,0.301981,-0.4869509
47895,14:23:13.805000,2.9615002,6.0211587,5.2191353,1.2175182,0.3777282,-0.42952970000000007
47896,14:23:13.815000,3.2679447999999995,5.245470500000001,4.0196919,1.2175182,0.3777282,-0.42952970000000007
47897,14:23:13.824000,2.863342,5.142523799999999,3.9622335,1.38123,0.4571406,-0.3806605
47898,14:23:13.834000,2.3150935,5.9780644999999994,3.7347938999999997,1.7880658999999999,0.5817571,-0.31468709999999994
47899,14:23:13.845000,2.1259596000000003,6.8303633,4.8959322,2.3268485,0.6110786,-0.170523
47900,14:23:13.856000,1.9918901000000002,7.764061900000001,5.9230003,2.7874404999999998,0.5463269000000001,-0.098441
47901,14:23:13.865000,1.8147268,9.0927868,6.4808254000000005,3.1124206,0.5157837000000001,-0.1961793
47902,14:23:13.874000,2.1259596000000003,9.4662657,7.13202,3.1160857999999996,0.48279700000000003,-0.1815186
47903,14:23:13.883000,2.6071734,8.7600069,7.409735700000001,2.3854916,0.1138347,-0.033689300000000005
47904,14:23:13.892000,3.0141702,7.560564,7.0961084,1.959108,0.12849539999999998,-0.07644989999999999
47905,14:23:13.902000,11.7813597,-0.1651928,-4.5368170999999995,1.7514140999999999,0.270216,-0.1729665
47906,14:23:13.911000,9.4830246,9.4758434,2.2863643,1.7514140999999999,0.270216,-0.1729665
47907,14:23:13.921000,1.1036795,16.004550899999998,1.0797385,3.3250015,0.3007593,1.0573151
47908,14:23:13.930000,-1.2736604999999999,6.9117632,0.5937365,3.78315,1.5603623,3.2124457000000004
47909,14:23:13.940000,-3.9909625,10.036062199999998,2.9471354,2.6237288,2.5951672,0.6920179
47910,14:23:13.950000,-0.7804762,12.6360531,5.4010868,2.153363,2.1309099,-1.3238356000000002
47911,14:23:13.964000,1.5777111000000001,15.4874249,6.5502539,1.4105514,0.9556063,-1.2529752
47912,14:23:13.971000,1.3742126000000001,17.2925758,5.6955609,0.0678709,0.0820697,-0.7887181999999999
47913,14:23:13.980000,-8.6714258,22.1669598,-6.701082700000001,-3.9430668,0.4156018,-1.999452
47914,14:23:13.990000,-0.8499051,7.361853599999999,2.9782588,-5.6229448,1.2915819,-3.5315006
47915,14:23:14.001000,-1.4388534,4.472176599999999,2.4898627,-6.7127275,1.0166926,-3.7941724999999997
47916,14:23:14.007000,-0.3926322,5.214346900000001,4.1082735,-6.7127275,1.0166926,-3.7941724999999997
47917,14:23:14.018000,-0.09097569999999999,5.2789874,3.1482398999999996,-6.4024081,0.2579987,-2.7337112
47918,14:23:14.028000,-0.0359115,4.7020102,3.7012767999999996,-5.7964301,-0.054764,-1.8210794999999997
47919,14:23:14.037000,2.3366406000000004,4.1944609,3.8473167,-5.2442082999999995,0.0759611,-2.0422125
47920,14:23:14.047000,2.1618712,5.039578,4.2686782,-4.843481099999999,0.2494466,-2.0006738
47921,14:23:14.060000,-0.26813909999999996,4.922267,4.771439099999999,-4.5710359,0.6232958000000001,-1.358044
47922,14:23:14.069000,-0.7924467,4.9677548,5.2694116,-4.536827099999999,1.2659256,-0.6702104
47923,14:23:14.078000,-0.13885770000000003,4.675674900000001,6.3563317999999995,-4.0444703,1.8828988000000002,-0.0691195
47924,14:23:14.086000,-1.8721851999999999,2.497045,6.3323908,-3.6730647000000003,1.9843023000000002,0.3682597
47925,14:23:14.095000,-1.1707143,3.0500817000000002,8.491867999999998,-3.0707521,1.9158853999999998,0.3951377
47926,14:23:14.104000,-0.6128892,5.647678900000001,9.392048800000001,-2.4611092,2.013624,0.040836199999999996
47927,14:23:14.114000,0.8738461,0.3327797,9.9881802,-2.4611092,2.013624,0.040836199999999996
47928,14:23:14.125000,-3.272733,2.8394009999999996,6.9237337,-2.1031425,2.189553,-0.14242320000000003
47929,14:23:14.134000,-3.6174831,1.2928133999999998,7.0769558,-1.7280715,2.5401892999999998,-0.009254700000000001
47930,14:23:14.145000,-4.096303,-1.4125183000000001,5.7003489,-1.5081601,2.7698742999999997,0.5710666999999999
47931,14:23:14.156000,-2.7843367999999997,-3.3661027000000003,7.8717966,-0.8472044,2.4400074000000003,0.8422905999999999
47932,14:23:14.166000,-1.2592959,5.381934200000001,7.6730865999999995,0.26456929999999995,1.9513156000000003,1.1733794
47933,14:23:14.173000,-3.7994347,4.2279787,5.3986925999999995,1.28227,1.8926728,1.0426544
47934,14:23:14.183000,-2.4012811000000003,1.5082823,6.1384692,1.3848951999999999,1.5860186,1.4898074
47935,14:23:14.193000,-2.2049651000000003,3.809011,6.5789833,1.8149438999999998,1.2610385,1.6327497
47936,14:23:14.202000,-2.1139894,5.3867221,7.5031056,1.9786557,1.5029411,1.4458251
47937,14:23:14.213000,-1.8147268,5.889483,8.1447239,1.9786557,1.5029411,1.4458251
47938,14:23:14.228000,-5.2478647,5.413057299999999,6.904581100000001,1.8906912,1.8095951000000001,0.9168162000000001
47939,14:23:14.232000,-5.784142500000001,5.6572556,7.148778900000001,1.4789683999999998,2.2885129,0.25219539999999996
47940,14:23:14.241000,-4.7858032999999995,4.0532093,6.2126861,0.9059771999999999,2.2640784,0.2094348
47941,14:23:14.262000,-5.6165557,4.8863554,7.1511731,0.31466020000000006,1.8120386999999998,0.12635719999999998
47942,14:23:14.271000,-5.9924288,5.362781,7.3283366999999995,0.0483232,1.5004976,0.053053499999999996
47943,14:23:14.280000,-4.7355275,3.8880162000000005,6.9428864,-0.5136724,1.2854731000000001,-0.2450485
47944,14:23:14.289000,-4.802562200000001,3.3924379,6.4999781,-0.5136724,1.2854731000000001,-0.2450485
47945,14:23:14.300000,-5.4489684,3.9574451,6.423367,-0.7128142,1.2891383,-0.2536006
47946,14:23:14.311000,-5.757807700000001,4.4338708,6.8303633,-0.5356635000000001,1.4943888,-0.1961793
47947,14:23:14.319000,-5.4346042,4.9366317,7.225389999999999,-0.5894196,1.4687326,-0.28292209999999995
47948,14:23:14.327000,-5.116189,5.1664648,7.8478556,-0.6810493000000001,1.4675109,-0.3379
47949,14:23:14.337000,-5.427422,4.7379217,8.051354400000001,-0.6810493000000001,1.4675109,-0.3379
47950,14:23:14.347000,-5.891877200000001,4.3452892,8.7408552,-0.7995571,1.498054,-0.32446090000000005
47951,14:23:14.361000,-5.8846945999999996,4.6780691,11.946553199999999,-1.1172066999999999,1.2390475,0.1495701
47952,14:23:14.370000,-6.040310900000001,4.7163744,15.0828218,-1.1172066999999999,1.2390475,0.1495701
47953,14:23:14.378000,-8.953928900000001,4.4482355,12.743787800000002,-1.5460337,1.5750232,0.15812220000000002
47954,14:23:14.387000,-9.4255667,4.4985113,11.9058533,-1.1355326000000001,1.3734376,-0.4319731
47955,14:23:14.397000,-8.599602699999998,3.5959363,11.6137733,-0.8007787,0.794338,-0.7374055
47956,14:23:14.405000,-8.1423302,3.2224569,10.9075136,-0.5600980999999999,0.23722929999999998,-0.780166
47957,14:23:14.418000,-7.957984,4.034056700000001,10.4263,-0.5600980999999999,0.23722929999999998,-0.780166
47958,14:23:14.425000,-6.6316533,3.9454749,10.428693800000001,-0.3536258,-0.27956220000000004,-0.5712503000000001
47959,14:23:14.434000,-5.7889309,3.299068,9.8995981,-0.2546657,-0.8354491,-0.40998199999999996
47960,14:23:14.445000,-5.8583593,2.5545032,8.9275942,-0.2583309,-1.4548659,-0.4283079000000001
47961,14:23:14.454000,-5.4010868,2.1929946,8.3027344,-0.0127633,-1.5403869,-0.5016117
47962,14:23:14.463000,-4.3979597,2.2193296,8.051354400000001,0.21814360000000002,-1.5770388000000002,-0.5468156999999999
47963,14:23:14.473000,-4.4338708,2.9279827999999997,6.8973985,0.3390948,-1.5599346,-0.5529243
47964,14:23:14.482000,-3.272733,2.8753126,6.576589599999999,0.3818553,-1.5110655000000002,-0.5187159
47965,14:23:14.493000,-3.0788109,3.0883875,6.7609348,0.3390948,-1.3314712,-0.5761371999999999
47966,14:23:14.501000,-2.9208004,2.9758646,6.2797208,0.3390948,-1.3314712,-0.5761371999999999
47967,14:23:14.511000,-3.416379,3.1195107,6.4425197,0.29266909999999996,-1.1824203000000002,-0.5394853000000001
47968,14:23:14.521000,-2.5856267999999996,3.3684969,7.1368084000000005,0.2792301,-0.9845001,-0.46251640000000005
47969,14:23:14.534000,-3.0117762000000003,3.2080922000000003,6.993162599999999,0.2816735,-0.9551786,-0.333013
47970,14:23:14.542000,-3.1171165000000003,3.2416098,7.4384651,0.28045180000000003,-0.8476664,-0.2841439
47971,14:23:14.555000,-3.2823095,3.1075404,7.7496977,0.2731214,-0.7804713000000001,-0.2572658
47972,14:23:14.564000,-3.0117762000000003,3.0213525000000003,8.175847099999999,0.26456929999999995,-0.7462628000000001,-0.2511572
47973,14:23:14.574000,-2.7580017999999997,3.4498963,12.061469099999998,0.24013470000000003,-0.6998371,-0.2804787
47974,14:23:14.580000,-3.0021996,4.5631518,7.6898451,0.21570010000000003,-0.6668504,-0.292696
47975,14:23:14.590000,-2.9279827999999997,3.6342421000000003,7.5557756,0.1656092,-0.5617816999999999,-0.23527470000000003
47976,14:23:14.600000,-2.2648175,3.2918858999999996,7.981925,0.103301,-0.3516442,-0.05690219999999999
47977,14:23:14.608000,-2.0661073,4.3668360999999996,8.240488099999999,0.0275538,-0.2551276,0.0713794
47978,14:23:14.620000,-2.2504527999999997,4.6780691,8.020231200000001,-0.0078764,0.0637438,0.7469956999999999
47979,14:23:14.628000,-2.5090156,5.4369984,8.9252005,-0.0078764,0.0637438,0.7469956999999999
47980,14:23:14.639000,-3.6581831,5.281382099999999,8.700155300000002,-0.235118,0.37406300000000003,1.062202
47981,14:23:14.648000,-4.0412387999999995,5.2311058,8.7959194,-0.235118,0.37406300000000003,1.062202
47982,14:23:14.658000,-5.7817483,3.8568931000000006,7.8454614000000005,-0.45136409999999993,0.5072315,0.8923815
47983,14:23:14.669000,-1.8434560000000002,5.1042185,8.6546669,-0.7506878,0.0564134,0.5747319000000001
47984,14:23:14.677000,-1.6830512999999998,4.6804628,7.960378599999999,-0.7506878,0.0564134,0.5747319000000001
47985,14:23:14.685000,-2.2456646,3.1673927,7.783214999999999,-0.9168431,0.0429744,0.3462685
47986,14:23:14.695000,-3.5241132000000004,2.8777068,7.524652499999999,-1.1379761999999998,0.1553735,0.29739940000000004
47987,14:23:14.706000,-3.9885685,2.9782588,7.7808208,-1.0964373,0.31664169999999997,0.46599799999999997
47988,14:23:14.714000,-4.1753082,2.9016478,8.2955523,-0.8838564,0.2799899,0.6113838
47989,14:23:14.724000,-3.952657,2.9279827999999997,8.604391099999999,-0.5319983,0.1016174,0.5845057
47990,14:23:14.734000,-3.9646275,2.6023853,8.3027344,-0.5319983,0.1016174,0.5845057
47991,14:23:14.744000,-4.3285303,2.5018332,8.0561428,-0.5026768,0.07473930000000001,0.4867674
47992,14:23:14.755000,-4.2327666,2.3893106,7.8981318,-0.44159030000000005,0.0735176,0.3841422
47993,14:23:14.763000,-4.2184019,2.6382967999999996,8.0369892,-0.3316347,0.035644,0.22531729999999997
47994,14:23:14.773000,-4.4242945,2.2456646,7.948408099999999,-0.2106835,-0.043768400000000006,0.0579404
47995,14:23:14.783000,-4.8600205999999995,1.6662928,7.905314,-0.1300493,-0.1036332,-0.05690219999999999
47996,14:23:14.792000,-4.0723619,2.3773401,7.905314,0.0959706,-0.2649015,-0.23771810000000002
47997,14:23:14.801000,-3.7467644,3.0764169999999997,8.2883701,0.0959706,-0.2649015,-0.23771810000000002
47998,14:23:14.811000,-3.7060647000000007,3.0285349,8.3889217,0.0507666,-0.31010540000000003,-0.2193922
47999,14:23:14.821000,-3.5432663,3.0333229999999998,8.230911299999999,-0.0579673,-0.275897,-0.1851838
48000,14:23:14.832000,-3.8066169999999997,2.8824949,8.2668228,-0.104393,-0.23680170000000003,-0.14975360000000001
48001,14:23:14.841000,-3.7635233,2.619144,8.4439859,-0.0897322,-0.20870189999999997,-0.1399798
48002,14:23:14.850000,-3.5384779,2.7795486,8.4631386,-0.0897322,-0.20870189999999997,-0.1399798
48003,14:23:14.860000,-3.7659172999999995,2.5114095,8.427228,-0.0543021,-0.21481060000000002,-0.1314277
48004,14:23:14.870000,-3.6821237,2.5545032,8.5493269,-0.018871900000000004,-0.2453538,-0.10577139999999999
48005,14:23:14.881000,-3.5408720999999996,2.9543178,8.6091785,0.042214499999999995,-0.3003316,-0.0752281
48006,14:23:14.889000,-3.4642611000000003,3.0500817000000002,8.5158091,0.042214499999999995,-0.3003316,-0.0752281
48007,14:23:14.899000,-3.2583685,3.1913337999999998,8.573267900000001,0.0923055,-0.3858527,0.015179900000000001
48008,14:23:14.908000,-3.2392156,3.0692346,8.62115,0.0923055,-0.3858527,0.015179900000000001
48009,14:23:14.918000,-3.296674,3.3684969,8.5493269,0.0800882,-0.38951779999999997,0.0701577
48010,14:23:14.927000,-2.9662883,3.3661027000000003,8.613966900000001,0.0483232,-0.3553094,0.12269200000000001
48011,14:23:14.938000,-3.0716287999999996,3.7132473,8.3649807,0.0287755,-0.3333183,0.1691177
48012,14:23:14.948000,-2.9208004,3.2679447999999995,8.2380943,-0.0335327,-0.2881143,0.19966099999999998
48013,14:23:14.958000,-2.8753126,3.5169311000000003,8.099235499999999,-0.11783199999999999,-0.2233627,0.1898872
48014,14:23:14.969000,-2.7627900000000003,2.8226426,8.0776892,-0.2473353,-0.0914159,0.172783
48015,14:23:14.991000,-2.8537657000000003,2.932771,8.218940700000001,-0.2473353,-0.0914159,0.172783
48016,14:23:14.999000,-2.8968594,2.7627900000000003,7.905314,-0.163036,-0.049877099999999994,0.2937342
48017,14:23:15.006000,-2.9638944,2.8178542,8.2476702,-0.1190538,-0.0034514000000000003,0.3743683
48018,14:23:15.016000,-2.9064360000000002,2.7675784,8.4870796,-0.0799584,0.023426699999999998,0.3743683
48019,14:23:15.026000,-2.8346131000000003,2.8058836,8.604391099999999,-0.018871900000000004,0.0014356,0.3328295
48020,14:23:15.037000,-2.7149078999999996,3.1937277,8.659455300000001,0.0226669,0.0136528,0.2790734
48021,14:23:15.045000,-2.9279827999999997,3.246398,8.391316400000001,0.0947489,0.0429744,0.25097359999999996
48022,14:23:15.054000,-3.7132473,3.3900437000000005,8.326675400000001,0.0947489,0.0429744,0.25097359999999996
48023,14:23:15.064000,-3.5839657999999996,3.2679447999999995,8.4344101,0.089862,0.12727370000000002,0.22531729999999997
48024,14:23:15.072000,-3.2535803,3.3708911,8.4703207,0.161944,0.050304699999999994,0.1153617
48025,14:23:15.082000,-3.8808341,3.1171165000000003,8.305128100000001,0.22547399999999998,-0.0266642,-0.0459066
48026,14:23:15.091000,-3.3541322,3.0093822,8.4942617,0.3207688,-0.09874630000000001,-0.4307514
48027,14:23:15.102000,-2.932771,3.3349794999999998,8.6929731,0.3207688,-0.09874630000000001,-0.4307514
48028,14:23:15.112000,-3.0716287999999996,2.5281682,8.252458599999999,0.37696840000000004,-0.15983270000000002,-0.6738755999999999
48029,14:23:15.122000,-3.0333229999999998,2.0780778000000004,8.099235499999999,0.374525,-0.190376,-0.8571350000000001
48030,14:23:15.131000,-2.9519238,2.6766026000000003,8.151906,0.3659728,-0.16105450000000002,-0.9182215
48031,14:23:15.141000,-3.0979638,3.1171165000000003,8.6857901,0.41972890000000007,-0.1561675,-0.8192613999999999
48032,14:23:15.151000,-3.1889396,3.3158267,8.700155300000002,0.5064718,-0.1806021,-0.6787625
48033,14:23:15.161000,-2.7460313,3.7132473,9.0616636,0.5138020999999999,-0.17815870000000003,-0.5773590000000001
48034,14:23:15.170000,-3.4355318999999995,2.5042272,8.063324900000001,0.428281,-0.2135888,-0.5284898
48035,14:23:15.180000,-2.4874685000000003,7.062591599999999,9.722435,0.3500904,-0.18548900000000001,-0.4209776
48036,14:23:15.189000,-2.9399533,4.390777099999999,8.1136007,0.42461590000000005,-0.15250239999999998,-0.29758290000000004
48037,14:23:15.200000,-2.2959406,2.8010955,8.300340700000001,-0.1068364,-0.0339946,-0.2865873
48038,14:23:15.209000,-2.5880208,4.3141661,8.606784800000002,-0.1068364,-0.0339946,-0.2865873
48039,14:23:15.219000,-3.1290869999999997,3.1745751,8.0729008,-0.1349362,-0.0401032,-0.11188
48040,14:23:15.228000,-3.270339,3.1697867000000004,8.1710587,-0.136158,0.0417526,0.0860402
48041,14:23:15.238000,-3.0189586,3.1721807,8.2500648,-0.189914,0.050304699999999994,0.09947919999999999
48042,14:23:15.248000,-3.3134327000000003,3.126693,8.0537481,-0.194801,0.027091900000000006,0.08726189999999999
48043,14:23:15.257000,-3.2320333,2.9806529999999998,8.0561428,-0.16425770000000003,0.0344222,0.0664925
48044,14:23:15.267000,-3.2535803,3.0524758999999997,8.1806355,-0.1349362,0.017318,0.0457231
48045,14:23:15.277000,-3.3900437000000005,2.863342,8.101630199999999,-0.1349362,0.017318,0.0457231
48046,14:23:15.287000,-3.3421616999999997,2.8920712,8.2596407,-0.09706260000000001,0.0209832,0.038392699999999995
48047,14:23:15.298000,-3.3086444999999998,3.1242987999999996,8.520597500000001,-0.0469717,0.0014356,0.015179900000000001
48048,14:23:15.307000,-3.3110385,3.2751269,8.1949997,0.0006757000000000001,-0.0254425,-0.008033
48049,14:23:15.317000,-3.0620522,3.5696013,8.4391975,0.0275538,-0.0254425,-0.0104765
48050,14:23:15.326000,-3.2559742999999997,3.1721807,8.3458281,0.0361059,-0.06942469999999999,0.0005191
48051,14:23:15.336000,-3.0117762000000003,3.3684969,8.4631386,0.0018975,-0.0425467,0.0420579
48052,14:23:15.345000,-2.8944654,3.7276117999999996,8.5469332,-0.0152067,-0.0266642,0.09947919999999999
48053,14:23:15.355000,-3.2631563999999997,3.4451079,8.307522800000001,-0.028645799999999996,-0.0010079000000000002,0.18500020000000003
48054,14:23:15.372000,-3.3972260999999997,3.153028,8.0609303,-0.09584089999999999,0.1028391,0.19721760000000002
48055,14:23:15.376000,-3.0381112,3.2440037999999998,8.3147049,-0.0946192,0.09795219999999999,0.1520135
48056,14:23:15.389000,-3.5959363,2.9519238,8.2548523,-0.1007278,0.0796262,0.1190268
48057,14:23:15.393000,-3.1961217,2.52338,7.835885,-0.0811801,0.094287,0.0066277
48058,14:23:15.402000,-2.5999912999999997,2.6215382000000003,8.0322018,-0.0078764,0.0099877,-0.08744539999999999
48059,14:23:15.412000,-3.1769691000000004,2.473104,7.9316492,-0.0078764,0.0099877,-0.08744539999999999
48060,14:23:15.421000,-3.5049605,2.7484252000000002,8.230911299999999,0.089862,-0.0046731,-0.0886672
48061,14:23:15.432000,-0.9815805000000001,4.3859892,8.8126774,0.2816735,-0.027885900000000005,-0.1509753
48062,14:23:15.442000,-5.0108485,3.9622335,7.874190799999999,0.2816735,-0.027885900000000005,-0.1509753
48063,14:23:15.453000,-3.3972260999999997,3.4858077000000005,9.169398300000001,0.1570571,0.0832914,-0.16197089999999997
48064,14:23:15.463000,-3.2152746,3.6917002,8.6546669,0.1570571,0.0832914,-0.16197089999999997
48065,14:23:15.471000,-3.3206151,3.6342421000000003,8.6810017,0.1130748,0.0686307,-0.2218357
48066,14:23:15.483000,-3.4834137000000003,3.2535803,8.554115300000001,0.0923055,0.05396990000000001,-0.19984449999999998
48067,14:23:15.491000,-3.4283495000000004,2.8896773,8.2452765,0.0923055,0.05396990000000001,-0.19984449999999998
48068,14:23:15.501000,-6.679535400000001,3.299068,9.2651625,0.1570571,-0.0975245,-0.27437
48069,14:23:15.521000,1.5848933,1.9918901000000002,9.3369846,0.4722633,-0.7059458000000001,-0.6152326
48070,14:23:15.533000,-3.8497107,3.8760457,8.9850531,0.4722633,-0.7059458000000001,-0.6152326
48071,14:23:15.539000,-4.1346083,3.7156413,8.580450099999998,0.6555227,-0.46282159999999994,-0.3501172
48072,14:23:15.550000,-4.4817529,3.9646275,8.218940700000001,0.66774,-0.0743117,-0.3036915
48073,14:23:15.560000,-4.0412387999999995,3.8832282999999994,7.1368084000000005,0.5663365,-0.3565312,-0.4466339
48074,14:23:15.568000,-0.8379346,4.9988779999999995,8.0537481,0.4820371,-0.5129125,-0.46373809999999993
48075,14:23:15.578000,-2.5377447999999996,4.3596539000000005,7.754486099999999,0.4820371,-0.5129125,-0.46373809999999993
48076,14:23:15.586000,-2.9591060000000002,4.3093777,7.531834599999999,0.3378731,-0.35042249999999997,-0.23038779999999998
48077,14:23:15.596000,-3.0381112,3.9622335,8.6283321,0.1912655,-0.1940412,-0.098441
48078,14:23:15.606000,-0.6392244,1.6112285,8.810282699999998,0.11429660000000001,-0.24901900000000002,-0.033689300000000005
48079,14:23:15.615000,-4.0867267,3.8568931000000006,8.1183891,0.0825316,-0.086529,0.20821309999999998
48080,14:23:15.626000,-2.9279827999999997,3.2033041,8.2356997,0.0825316,-0.086529,0.20821309999999998
48081,14:23:15.635000,-2.983047,3.7850699,8.1040249,0.044657999999999996,0.0405309,0.2790734
48082,14:23:15.645000,-2.7939133999999997,3.6438181000000003,8.1806355,-0.009098100000000001,-0.1353981,0.2631909
48083,14:23:15.655000,-2.8585539,3.809011,8.1231766,-0.009098100000000001,-0.1353981,0.2631909
48084,14:23:15.665000,-2.8896773,4.0292683,8.0776892,-0.09339739999999999,-0.06942469999999999,0.26074749999999997
48085,14:23:15.674000,-2.813066,3.8425286,8.0800838,-0.09339739999999999,-0.06942469999999999,0.26074749999999997
48086,14:23:15.683000,-2.6813905,3.7276117999999996,8.1183891,-0.14348829999999999,-0.058429199999999994,0.2179869
48087,14:23:15.693000,-2.7651839,3.6126949999999995,8.1327534,-0.1984662,-0.0376598,0.1776699
48088,14:23:15.703000,-2.8753126,3.4091966,8.2285175,-0.176475,0.017318,0.11047470000000001
48089,14:23:15.713000,-2.7939133999999997,3.5456602999999998,8.408075300000002,-0.176475,0.017318,0.11047470000000001
48090,14:23:15.722000,-2.8202484,3.5241132000000004,8.532568,-0.1679229,0.0368657,0.0811532
48091,14:23:15.732000,-2.3629756,3.3637087,9.023358300000002,-0.1679229,0.0686307,0.06771419999999999
48092,14:23:15.742000,-2.9112239,3.5983305,8.2356997,-0.19235750000000001,0.10894780000000001,0.0701577
48093,14:23:15.752000,-2.9184062,3.8951987999999997,8.5110207,-0.2314529,0.1651473,0.1214703
48094,14:23:15.762000,-2.640691,3.5049605,8.6738195,-0.3010914,0.184695,0.1385745
48095,14:23:15.771000,-3.3589206,3.3445561,8.020231200000001,-0.3010914,0.184695,0.1385745
48096,14:23:15.780000,-3.5001721,3.0596582999999997,8.1183891,-0.312087,0.1944688,0.15079179999999998
48097,14:23:15.789000,-2.9806529999999998,3.126693,8.5014448,-0.312087,0.1944688,0.15079179999999998
48098,14:23:15.800000,-3.3062503,2.9615002,8.408075300000002,-0.20335309999999998,0.10894780000000001,0.0616056
48099,14:23:15.809000,-2.9160123,2.9615002,8.587632199999998,-0.20335309999999998,0.10894780000000001,0.0616056
48100,14:23:15.819000,-2.6287205,3.2847035000000004,8.400893199999999,-0.1508187,0.094287,0.038392699999999995
48101,14:23:15.829000,-2.9088298999999997,3.5049605,8.1949997,-0.12027550000000001,0.08695660000000001,0.053053499999999996
48102,14:23:15.840000,-2.8801007000000003,3.4115907999999995,8.192606,-0.12271889999999999,0.08940010000000001,0.0884836
48103,14:23:15.849000,-2.9255888,3.4570785,8.2955523,-0.1557056,0.11261289999999999,0.07870980000000001
48104,14:23:15.859000,-2.9710765,3.4977782,8.3410397,-0.1691447,0.0881784,0.056718700000000004
48105,14:23:15.869000,-3.1386635,3.4235613,8.412862800000001,-0.1691447,0.0881784,0.056718700000000004
48106,14:23:15.878000,-3.2080922000000003,3.299068,8.4655333,-0.16425770000000003,0.094287,0.0469448
48107,14:23:15.887000,-3.0213525000000003,3.3708911,8.496656399999999,-0.1557056,0.0906218,0.0322841
48108,14:23:15.896000,-2.7173021,3.0883875,8.4559574,-0.131271,0.0906218,0.0420579
48109,14:23:15.908000,-2.9758646,3.3565266000000005,8.187817599999999,-0.1166103,0.1138347,0.08726189999999999
48110,14:23:15.917000,-2.9112239,3.3325856,8.1662712,-0.1166103,0.1138347,0.08726189999999999
48111,14:23:15.927000,-3.1386635,3.5624189,8.005866099999999,-0.1153885,0.0930653,0.141018
48112,14:23:15.940000,-3.2559742999999997,3.0189586,8.1495123,-0.1153885,0.0930653,0.141018
48113,14:23:15.946000,-3.4331373999999997,3.1003580000000004,8.319493300000001,-0.0982843,0.0332005,0.053053499999999996
48114,14:23:15.959000,-3.7132473,2.813066,8.3410397,-0.0982843,0.0332005,0.053053499999999996
48115,14:23:15.965000,-3.5217192,2.6766026000000003,8.348222699999999,-0.0469717,-0.016890400000000003,0.029840600000000002
48116,14:23:15.975000,-3.4714432,2.9447415,8.269216499999999,0.011671299999999999,-0.0804203,-0.0446849
48117,14:23:15.983000,-3.3565266000000005,3.6845181000000005,8.3314638,0.0800882,-0.0767551,-0.0886672
48118,14:23:15.994000,-3.58636,3.6294537000000004,8.3290691,0.1399529,-0.05109880000000001,-0.1094366
48119,14:23:16.003000,-3.2918858999999996,3.2870975,8.2644291,0.1399529,-0.05109880000000001,-0.1094366
48120,14:23:16.013000,-2.8394009999999996,3.1889396,9.0209637,0.1460615,-0.2074802,-0.14975360000000001
48121,14:23:16.023000,-3.3397677000000003,2.9495296000000004,8.898864699999999,0.1460615,-0.2074802,-0.14975360000000001
48122,14:23:16.033000,-2.7077258,2.6047795,9.6290646,0.14728329999999998,-0.2930012,-0.1509753
48123,14:23:16.042000,-2.9231944,2.3366406000000004,9.370502499999999,0.1656092,-0.4237263,-0.25848760000000004
48124,14:23:16.051000,-3.9023809000000003,2.7316667999999997,7.5677462,0.2376913,-0.10852010000000001,-0.47106850000000006
48125,14:23:16.061000,-2.4778922000000003,3.9335042999999996,7.6299925,0.3366513,-0.3773006,-0.4722902
48126,14:23:16.071000,-2.7963072999999996,4.5368170999999995,7.8143387,0.3366513,-0.3773006,-0.4722902
48127,14:23:16.080000,-2.6359026,3.9909625,8.0776892,0.3354296,-0.45671300000000004,-0.3305696
48128,14:23:16.092000,-2.3366406000000004,3.6940942000000003,8.3745575,0.1668309,-0.3467574,-0.0972193
48129,14:23:16.100000,-2.4132514,3.4307434999999997,8.5636911,0.1668309,-0.3467574,-0.0972193
48130,14:23:16.111000,-2.6861787,3.2799153,8.6546669,0.1436181,-0.2258061,0.053053499999999996
48131,14:23:16.120000,-2.8154602000000004,3.3589206,8.5445375,0.1289573,-0.1036332,0.1446832
48132,14:23:16.129000,-2.7125139,3.4235613,8.312311200000002,0.12040519999999999,-0.0291077,0.1764481
48133,14:23:16.140000,-2.6071734,3.7300057,8.1423302,0.1277356,-0.020555599999999997,0.16789600000000002
48134,14:23:16.149000,-2.6742082000000003,3.8880162000000005,8.1830292,0.1277356,-0.020555599999999997,0.16789600000000002
48135,14:23:16.159000,-2.5904147999999996,3.9742040999999997,8.187817599999999,0.1069662,-0.013225200000000001,0.1495701
48136,14:23:16.169000,-2.6622376,3.8257697,8.3099174,0.0532101,-0.0022296,0.12269200000000001
48137,14:23:16.178000,-2.7173021,3.6390300000000004,8.321887,-0.009098100000000001,0.022205000000000003,0.1068096
48138,14:23:16.187000,-2.8609481,3.3541322,8.405680699999998,-0.0543021,0.0588568,0.0982574
48139,14:23:16.197000,-2.8441892,3.3325856,8.362587,-0.0799584,0.0845132,0.0848184
48140,14:23:16.206000,-2.7412429,3.4834137000000003,8.400893199999999,-0.0872888,0.1028391,0.0664925
48141,14:23:16.216000,-2.8226426,3.3708911,8.3290691,-0.0897322,0.0967304,0.0554969
48142,14:23:16.226000,-2.9878352,3.3230089999999994,8.300340700000001,-0.09706260000000001,0.0991739,0.0554969
48143,14:23:16.236000,-2.9064360000000002,3.3613148,8.4320164,-0.0885105,0.0955087,0.053053499999999996
48144,14:23:16.245000,-2.9136182999999996,3.4139847999999997,8.405680699999998,-0.0579673,0.0771828,0.035949300000000003
48145,14:23:16.254000,-3.0309291000000003,3.2847035000000004,8.3937101,-0.0298675,0.0576351,0.0261754
48146,14:23:16.264000,-2.9950175,3.3541322,8.3530102,-0.011541599999999999,0.049083,0.0225102
48147,14:23:16.274000,-2.9495296000000004,3.5504483999999996,8.477503800000001,0.0080061,0.0295353,0.011514700000000001
48148,14:23:16.284000,-2.8537657000000003,3.5767834,8.424833300000001,0.0287755,0.007544199999999999,0.0090712
48149,14:23:16.294000,-2.8992536,3.5887538999999995,8.398497599999999,0.0287755,-0.0010079000000000002,0.0078495
48150,14:23:16.304000,-2.9351648999999997,3.5360837,8.3601933,0.0165582,0.0002138,0.012736399999999998
48151,14:23:16.313000,-2.9399533,3.4594727,8.3697691,0.0031191999999999995,0.0026573,0.0102929
48152,14:23:16.324000,-2.7388489,3.416379,8.7456427,-0.010319799999999999,-0.0034514000000000003,0.0005191
48153,14:23:16.333000,-3.0021996,3.5312957999999997,8.269216499999999,-0.011541599999999999,-0.0156687,-0.0068113
48154,14:23:16.343000,-2.8705244,3.5384779,8.3458281,-0.0078764,-0.0339946,-0.009254700000000001
48155,14:23:16.352000,-2.8058836,3.5193252999999998,8.386528,-0.0176502,-0.03277290000000001,-0.0104765
48156,14:23:16.364000,-2.9040418,3.4283495000000004,8.362587,-0.026202299999999998,-0.0242208,-0.0116982
48157,14:23:16.374000,-2.789125,3.4929900000000003,8.3793459,-0.022537099999999997,-0.020555599999999997,-0.012919899999999998
48158,14:23:16.384000,-2.7101197,3.5265076,8.2931576,-0.0152067,-0.019333799999999998,-0.009254700000000001
48159,14:23:16.394000,-2.8777068,3.4451079,8.2763996,-0.0152067,-0.019333799999999998,-0.009254700000000001
48160,14:23:16.411000,-2.8202484,3.5169311000000003,8.3338575,-0.0213154,-0.013225200000000001,-0.0055896
48161,14:23:16.423000,-2.8417952,3.4115907999999995,8.357798599999999,-0.028645799999999996,-0.019333799999999998,-0.021472
48162,14:23:16.430000,-2.8872831000000003,3.3996203,8.357798599999999,-0.028645799999999996,-0.019333799999999998,-0.021472
48163,14:23:16.442000,-2.8298247,3.4905961000000003,8.4152575,-0.032311,-0.019333799999999998,-0.0324676
48164,14:23:16.449000,-2.8346131000000003,3.4546845,8.403286900000001,-0.028645799999999996,-0.020555599999999997,-0.0324676
48165,14:23:16.459000,-2.9016478,3.3996203,8.424833300000001,-0.0237588,-0.019333799999999998,-0.0165851
48166,14:23:16.468000,-2.8681302000000004,3.3589206,8.4344101,-0.0249806,-0.009559999999999999,-0.0007026
48167,14:23:16.480000,-2.9184062,3.3206151,8.412862800000001,-0.018871900000000004,0.003879,0.0066277
48168,14:23:16.491000,-2.8178542,3.3397677000000003,8.400893199999999,-0.0078764,0.0136528,0.0090712
48169,14:23:16.500000,-2.8010955,3.3876498,8.3649807,0.0043409,0.0197615,0.0078495
48170,14:23:16.510000,-2.8394009999999996,3.4115907999999995,8.321887,0.015336500000000001,0.0136528,0.0090712
48171,14:23:16.519000,-2.7627900000000003,3.4020143,8.2835817,0.020223400000000002,0.0099877,0.0090712
48172,14:23:16.529000,-2.7819428,3.4834137000000003,8.305128100000001,0.0226669,-0.0034514000000000003,0.005406
48173,14:23:16.539000,-2.8034897,3.44032,8.3027344,0.0238886,-0.0107817,-0.0019244
48174,14:23:16.549000,-2.7196963,3.6079068,8.285976400000001,0.0226669,-0.0120035,-0.0141417
48175,14:23:16.556000,-2.6718142000000005,3.6390300000000004,8.321887,0.0226669,-0.016890400000000003,-0.019028599999999996
48176,14:23:16.568000,-2.7532134,3.6126949999999995,8.348222699999999,0.0190017,-0.0156687,-0.0104765
48177,14:23:16.576000,-2.8178542,3.5719953,8.3649807,0.0018975,-0.0010079000000000002,-0.0055896
48178,14:23:16.587000,-2.7005434,3.636636,8.3937101,-0.0127633,0.0112094,0.0029625999999999997
48179,14:23:16.597000,-2.813066,3.5289016,8.3601933,-0.0237588,0.022205000000000003,0.0164016
48180,14:23:16.607000,-2.8848889,3.4259553,8.400893199999999,-0.0420848,0.030757099999999996,0.023732
48181,14:23:16.616000,-2.8872831000000003,3.3541322,8.4152575,-0.0543021,0.0295353,0.0225102
48182,14:23:16.626000,-2.863342,3.3780732,8.3673754,-0.050636900000000006,0.0246484,0.0176233
48183,14:23:16.636000,-2.9088298999999997,3.3756793,8.3673754,-0.037197900000000006,0.0160963,0.0078495
48184,14:23:16.646000,-2.8657362,3.44032,8.3697691,-0.022537099999999997,0.007544199999999999,0.0017408
48185,14:23:16.655000,-2.8034897,3.5312957999999997,8.4320164,-0.0127633,0.0026573,-0.0055896
48186,14:23:16.662000,-2.837007,3.4690489999999996,8.3649807,-0.013985,-0.0034514000000000003,-0.009254700000000001
48187,14:23:16.674000,-2.9519238,3.3613148,8.3769512,-0.0237588,0.0051007,-0.012919899999999998
48188,14:23:16.685000,-2.9064360000000002,3.4594727,8.3841343,-0.028645799999999996,0.0124311,-0.0153634
48189,14:23:16.694000,-2.8872831000000003,3.4882019,8.3697691,-0.020093700000000003,0.0112094,-0.021472
48190,14:23:16.704000,-2.9064360000000002,3.4810195,8.3817396,-0.009098100000000001,0.0063225,-0.0239155
48191,14:23:16.713000,-2.8202484,3.5169311000000003,8.257247,-0.004211199999999999,0.0014356,-0.017806799999999998
48192,14:23:16.724000,-2.8274305,3.5001721,8.216547,-0.0029894,-0.0022296,-0.008033
48193,14:23:16.733000,-2.8202484,3.4570785,8.230911299999999,-0.000546,0.0002138,-0.0019244
48194,14:23:16.743000,-2.8896773,3.3661027000000003,8.2716112,-0.000546,0.008765899999999998,-0.004367800000000001
48195,14:23:16.752000,-2.8657362,3.2344275000000002,8.1973944,0.0006757000000000001,0.0099877,-0.009254700000000001
48196,14:23:16.763000,-2.9040418,3.3469501000000004,8.2763996,0.005562699999999999,-0.0046731,-0.0165851
48197,14:23:16.771000,-2.8537657000000003,3.4929900000000003,8.3147049,0.021445099999999998,-0.016890400000000003,-0.0153634
48198,14:23:16.781000,-2.8801007000000003,3.4738371,8.417651199999998,0.0226669,-0.022999000000000002,-0.0165851
48199,14:23:16.791000,-2.9231944,3.5049605,8.4870796,0.0031191999999999995,-0.0217773,-0.0226938
48200,14:23:16.801000,-2.9495296000000004,3.4283495000000004,8.5301743,-0.011541599999999999,-0.020555599999999997,-0.025137200000000002
48201,14:23:16.810000,-2.8705244,3.4283495000000004,8.518202800000001,-0.0152067,-0.022999000000000002,-0.0288024
48202,14:23:16.818000,-2.9591060000000002,3.3708911,8.4559574,-0.0127633,-0.022999000000000002,-0.0312459
48203,14:23:16.830000,-2.8968594,3.3756793,8.3745575,-0.010319799999999999,-0.022999000000000002,-0.030024099999999998
48204,14:23:16.838000,-2.8609481,3.4139847999999997,8.3769512,-0.009098100000000001,-0.0242208,-0.030024099999999998
48205,14:23:16.849000,-2.7149078999999996,3.5097487000000003,8.4320164,-0.0017676999999999999,-0.0315511,-0.0324676
48206,14:23:16.859000,-2.7412429,3.4810195,8.285976400000001,0.0043409,-0.0352163,-0.0349111
48207,14:23:16.869000,-2.863342,3.3804674,8.2069702,0.005562699999999999,-0.0181121,-0.033689300000000005
48208,14:23:16.878000,-2.7268784,3.4642611000000003,8.2285175,-0.0029894,-0.0022296,-0.027580700000000003
48209,14:23:16.888000,-2.5305624,3.6055129,8.2835817,-0.0078764,-0.0034514000000000003,-0.033689300000000005
48210,14:23:16.908000,-3.1123283,4.0508150999999994,8.2716112,-0.010319799999999999,-0.0058948,-0.03613280000000001
48211,14:23:16.916000,-2.7173021,2.8777068,8.6474848,-0.0384196,0.15659520000000002,0.028618900000000003
48212,14:23:16.925000,-2.9591060000000002,3.0883875,9.236433,-0.0384196,0.15659520000000002,0.028618900000000003
48213,14:23:16.935000,-2.9543178,3.6438181000000003,9.0042048,-0.018871900000000004,0.12238679999999999,-0.0104765
48214,14:23:16.944000,-3.2392156,3.3014622000000005,8.2380943,0.0348842,0.1346041,0.040836199999999996
48215,14:23:16.954000,-2.8010955,3.5648129,8.312311200000002,0.0336624,0.1553735,0.0102929
48216,14:23:16.963000,-2.9255888,4.096303,8.4320164,0.026332099999999997,0.060078599999999996,-0.0373545
48217,14:23:16.974000,-2.9184062,3.8257697,8.477503800000001,0.0348842,-0.009559999999999999,-0.026358999999999997
48218,14:23:16.995000,-2.9423472999999998,3.6174831,8.5636911,-0.051858600000000005,-0.0120035,0.037170999999999996
48219,14:23:17.006000,-3.1075404,3.2176687999999998,8.4200449,-0.0750715,-0.009559999999999999,0.0652708
48220,14:23:17.007000,-3.0548699,3.0644464,8.2668228,-0.0750715,-0.009559999999999999,0.0652708
48221,14:23:17.024000,-2.9782588,3.2033041,8.2763996,-0.059189,-0.0217773,0.0689359
48222,14:23:17.025000,-2.9279827999999997,3.1626046000000003,8.216547,-0.059189,-0.0217773,0.0689359
48223,14:23:17.038000,-2.7029376,3.1626046000000003,8.1806355,0.0067843999999999995,-0.0657596,0.0457231
48224,14:23:17.045000,-2.7436373,3.3325856,8.300340700000001,0.0177799,-0.0804203,0.012736399999999998
48225,14:23:17.054000,-2.7340607999999995,3.3469501000000004,8.3314638,0.045879699999999995,-0.0669813,-0.0055896
48226,14:23:17.059000,-2.7723663,3.3661027000000003,8.3649807,0.0471015,-0.0449902,-0.0153634
48227,14:23:17.075000,-2.7364547000000004,3.4451079,8.3961039,0.03854930000000001,-0.0242208,-0.0349111
48228,14:23:17.082000,-2.7651839,3.5648129,8.3961039,0.032440699999999996,-0.0083383,-0.0483501
48229,14:23:17.104000,-2.789125,3.5552367999999994,8.3841343,0.0275538,0.0026573,-0.0544587
48230,14:23:17.105000,-2.7915192,3.6246655,8.3506165,0.0275538,0.0026573,-0.0544587
48231,14:23:17.107000,-2.786731,3.5959363,8.348222699999999,-0.005432899999999999,0.0319788,-0.0373545
48232,14:23:17.117000,-2.8082778,3.5193252999999998,8.408075300000002,-0.013985,0.0405309,-0.0202503
48233,14:23:17.127000,-2.8944654,3.3972260999999997,8.403286900000001,-0.013985,0.0405309,-0.0202503
48234,14:23:17.137000,-2.9303767999999994,3.3684969,8.412862800000001,-0.0176502,0.0478613,-0.008033
48235,14:23:17.148000,-2.9231944,3.3421616999999997,8.3961039,0.0043409,0.0441961,0.0029625999999999997
48236,14:23:17.157000,-2.8681302000000004,3.3589206,8.3889217,0.0043409,0.0441961,0.0029625999999999997
48237,14:23:17.167000,-2.8848889,3.3948319,8.3338575,0.0165582,0.030757099999999996,0.005406
48238,14:23:17.177000,-2.8944654,3.4091966,8.3506165,0.032440699999999996,0.0160963,-0.0007026
48239,14:23:17.186000,-2.8824949,3.5025665999999998,8.405680699999998,0.032440699999999996,0.0160963,-0.0007026
48240,14:23:17.197000,-2.8896773,3.4786254999999997,8.3434343,0.0373276,0.0112094,-0.004367800000000001
48241,14:23:17.206000,-2.8585539,3.5336897000000005,8.3242817,0.0361059,0.007544199999999999,-0.0055896
48242,14:23:17.217000,-2.8872831000000003,3.4905961000000003,8.3697691,0.0238886,0.0063225,0.0017408
48243,14:23:17.225000,-2.8513715,3.5408720999999996,8.3841343,0.0238886,0.0063225,0.0017408
48244,14:23:17.235000,-2.8417952,3.5456602999999998,8.3697691,0.020223400000000002,0.0136528,0.005406
48245,14:23:17.249000,-2.786731,3.5504483999999996,8.3841343,0.020223400000000002,0.0136528,0.005406
48246,14:23:17.254000,-2.813066,3.4905961000000003,8.3290691,0.015336500000000001,0.0185398,0.0041843
48247,14:23:17.269000,-2.863342,3.4475021,8.3506165,-0.0017676999999999999,0.030757099999999996,0.0041843
48248,14:23:17.273000,-2.8824949,3.3589206,8.3314638,-0.004211199999999999,0.0344222,0.0017408
48249,14:23:17.284000,-2.9279827999999997,3.3996203,8.2979469,-0.004211199999999999,0.0344222,0.0017408
48250,14:23:17.293000,-2.8920712,3.4379258000000004,8.312311200000002,-0.0029894,0.035644,-0.004367800000000001
48251,14:23:17.302000,-2.8346131000000003,3.4858077000000005,8.2931576,0.0031191999999999995,0.0319788,-0.008033
48252,14:23:17.315000,-2.9016478,3.4666550000000003,8.2811871,0.0031191999999999995,0.030757099999999996,-0.0104765
48253,14:23:17.321000,-2.9088298999999997,3.4929900000000003,8.3386459,0.0018975,0.028313599999999998,-0.0116982
48254,14:23:17.333000,-2.8848889,3.5911478999999997,8.319493300000001,-0.009098100000000001,0.030757099999999996,-0.012919899999999998
48255,14:23:17.341000,-2.8561597,3.6510005,8.3841343,-0.009098100000000001,0.030757099999999996,-0.012919899999999998
48256,14:23:17.350000,-2.8968594,3.58636,8.3841343,-0.020093700000000003,0.0332005,-0.004367800000000001
48257,14:23:17.367000,-2.9686825,3.5241132000000004,8.408075300000002,-0.0494152,0.0417526,0.0102929
48258,14:23:17.370000,-2.932771,3.4307434999999997,8.348222699999999,-0.0494152,0.0417526,0.0102929
48259,14:23:17.384000,-2.9758646,3.3134327000000003,8.312311200000002,-0.0445282,0.027091900000000006,0.0261754
48260,14:23:17.399000,-2.9950175,3.3038561,8.3601933,-0.0164285,0.0209832,0.0212885
48261,14:23:17.410000,-2.9064360000000002,3.1554222000000003,8.3099174,-0.0164285,0.0209832,0.0212885
48262,14:23:17.418000,-3.0117762000000003,3.1626046000000003,8.1854239,0.0483232,0.014874600000000002,0.024953700000000002
48263,14:23:17.431000,-2.6430849999999997,3.5241132000000004,8.1543007,0.08130989999999999,-0.0034514000000000003,0.024953700000000002
48264,14:23:17.437000,-2.6718142000000005,3.8066169999999997,8.2380943,0.08130989999999999,-0.0034514000000000003,0.024953700000000002
48265,14:23:17.449000,-2.8034897,3.6414242,8.2596407,0.0226669,0.0344222,0.035949300000000003
48266,14:23:17.460000,-2.863342,3.6797296999999998,8.3889217,-0.0213154,0.0649655,0.034727499999999994
48267,14:23:17.466000,-2.9615002,3.6222714999999996,8.4224386,-0.0408631,0.080848,0.0396144
48268,14:23:17.477000,-3.006988,3.5049605,8.429621699999998,-0.051858600000000005,0.08695660000000001,0.038392699999999995
48269,14:23:17.486000,-2.8848889,3.3565266000000005,8.4200449,-0.051858600000000005,0.08695660000000001,0.038392699999999995
48270,14:23:17.494000,-3.0668404,3.3397677000000003,8.3410397,-0.0579673,0.1003956,0.054275199999999996
48271,14:23:17.506000,-3.1219049,3.4068023999999997,8.4320164,-0.0579673,0.1003956,0.054275199999999996
48272,14:23:17.516000,-3.0620522,3.4738371,8.427228,-0.0384196,0.107726,0.0689359
48273,14:23:17.527000,-2.9950175,3.4594727,8.403286900000001,-0.020093700000000003,0.1040608,0.0799315
48274,14:23:17.536000,-2.789125,3.3756793,8.2596407,-0.020093700000000003,0.1040608,0.0799315
48275,14:23:17.545000,-2.645479,3.3014622000000005,7.9627724,-0.0152067,0.12238679999999999,0.1129182
48276,14:23:17.555000,-2.9591060000000002,3.4834137000000003,8.063324900000001,-0.0152067,0.12238679999999999,0.1129182
48277,14:23:17.565000,-3.2631563999999997,3.5312957999999997,8.2237291,0.010449600000000002,0.1346041,0.1324659
48278,14:23:17.576000,-2.8753126,3.4355318999999995,8.2356997,0.0165582,0.1492648,0.11047470000000001
48279,14:23:17.584000,-3.1913337999999998,3.6677592000000003,8.192606,0.0190017,0.1016174,0.0860402
48280,14:23:17.595000,-3.1147225,3.6174831,8.269216499999999,0.015336500000000001,0.050304699999999994,0.0445014
48281,14:23:17.603000,-3.0141702,3.6940942000000003,8.3721638,0.015336500000000001,0.014874600000000002,0.0102929
48282,14:23:17.613000,-3.1242987999999996,3.6581831,8.3506165,0.0018975,0.0002138,0.0066277
48283,14:23:17.623000,-3.2870975,3.6270595,8.307522800000001,0.0018975,0.0002138,0.0066277
48284,14:23:17.632000,-2.9591060000000002,3.5408720999999996,8.403286900000001,-0.0127633,-0.013225200000000001,0.0017408
48285,14:23:17.645000,-2.9136182999999996,3.4858077000000005,8.3338575,-0.0445282,-0.05109880000000001,-0.0288024
48286,14:23:17.652000,-3.0405054,3.5456602999999998,8.3506165,-0.0445282,-0.05109880000000001,-0.0288024
48287,14:23:17.662000,-3.0572641,3.4594727,8.3338575,-0.06651939999999999,-0.014446899999999999,-0.0349111
48288,14:23:17.671000,-3.0093822,3.3948319,8.2716112,-0.06651939999999999,-0.014446899999999999,-0.0349111
48289,14:23:17.681000,-2.9351648999999997,3.416379,8.257247,-0.07140629999999999,-0.019333799999999998,-0.04101969999999999
48290,14:23:17.693000,-2.9519238,3.2751269,8.3027344,-0.0701846,-0.0291077,-0.03857619999999999
48291,14:23:17.700000,-3.0237467000000002,3.4498963,8.2596407,-0.0701846,-0.0291077,-0.03857619999999999
48292,14:23:17.714000,-2.5688679,3.3565266000000005,8.3314638,-0.06163250000000001,-0.036438099999999994,-0.0312459
48293,14:23:17.719000,-2.8609481,3.4187729,8.2261238,-0.06163250000000001,-0.036438099999999994,-0.0312459
48294,14:23:17.729000,-2.8705244,3.3661027000000003,8.2356997,-0.051858600000000005,0.0332005,0.0261754
48295,14:23:17.742000,-2.8729186,3.4690489999999996,8.3242817,-0.051858600000000005,0.0332005,0.0261754
48296,14:23:17.748000,-2.9088298999999997,3.5312957999999997,8.3817396,-0.0469717,0.0417526,0.023732
48297,14:23:17.763000,-2.7364547000000004,3.4044084999999997,8.312311200000002,-0.0530804,0.0735176,0.0225102
48298,14:23:17.768000,-3.1889396,3.3086444999999998,8.3147049,-0.0530804,0.0735176,0.0225102
48299,14:23:17.778000,-2.8322186,3.0955698,8.398497599999999,-0.0530804,0.10650430000000001,0.024953700000000002
48300,14:23:17.788000,-2.9399533,2.8441892,8.424833300000001,-0.0469717,0.107726,0.018844999999999997
48301,14:23:17.798000,-3.126693,3.2176687999999998,8.3434343,-0.0335327,0.1040608,0.0261754
48302,14:23:17.810000,-3.0117762000000003,3.5719953,8.300340700000001,0.0690926,0.1162781,0.09337050000000001
48303,14:23:17.816000,-2.9543178,3.6557887000000004,8.175847099999999,0.0690926,0.1162781,0.09337050000000001
48304,14:23:17.826000,-3.0117762000000003,3.5648129,8.2763996,0.0690926,0.0845132,0.0689359
48305,14:23:17.836000,-3.0405054,3.4977782,8.269216499999999,0.045879699999999995,0.0649655,0.0335058
48306,14:23:17.846000,-2.956712,3.4690489999999996,8.3793459,0.029997199999999998,0.0429744,0.0029625999999999997
48307,14:23:17.858000,-3.1841512,3.6462126000000006,8.1638765,0.0409928,0.035644,0.0176233
48308,14:23:17.865000,-3.2823095,3.6318479,8.221335400000001,0.0409928,0.035644,0.0176233
48309,14:23:17.875000,-2.9543178,3.7659172999999995,8.3314638,0.044657999999999996,0.030757099999999996,0.0273971
48310,14:23:17.884000,-3.246398,3.8161936,8.0848713,0.029997199999999998,0.0099877,0.015179900000000001
48311,14:23:17.893000,-2.8561597,3.8042231,8.285976400000001,0.010449600000000002,0.014874600000000002,0.011514700000000001
48312,14:23:17.907000,-3.3230089999999994,3.6845181000000005,8.216547,-0.0164285,0.030757099999999996,0.0078495
48313,14:23:17.913000,-3.3493443,3.3708911,8.3099174,-0.051858600000000005,0.035644,-0.0068113
48314,14:23:17.928000,-3.2870975,3.4187729,8.2668228,-0.07873669999999999,0.0014356,-0.0593456
48315,14:23:17.933000,-3.1099343,3.1602101,8.2883701,-0.07873669999999999,0.0014356,-0.0593456
48316,14:23:17.942000,-3.1434517000000004,3.1961217,8.305128100000001,-0.0579673,-0.013225200000000001,-0.09111060000000001
48317,14:23:17.953000,-2.8657362,3.0309291000000003,8.0800838,-0.037197900000000006,-0.0034514000000000003,-0.0959975
48318,14:23:17.962000,-3.1386635,3.3780732,8.3817396,-0.013985,0.0124311,-0.0813368
48319,14:23:17.974000,-3.1290869999999997,3.1099343,8.252458599999999,0.0043409,0.04541780000000001,-0.07156289999999998
48320,14:23:17.980000,-3.2296392999999997,2.9591060000000002,8.2117586,0.0043409,0.04541780000000001,-0.07156289999999998
48321,14:23:18,-2.9782588,3.3804674,8.3649807,0.0336624,0.0344222,-0.0813368
48322,14:23:18.010000,-3.0428995999999997,3.5241132000000004,8.2811871,0.0923055,-0.036438099999999994,-0.1033279
48323,14:23:18.020000,-3.0213525000000003,3.5743894999999997,8.2931576,0.0923055,-0.036438099999999994,-0.1033279
48324,14:23:18.029000,-2.9806529999999998,3.610301,8.2931576,0.0788664,-0.0339946,-0.0788933
48325,14:23:18.041000,-3.0045941000000003,3.4905961000000003,8.257247,0.0483232,-0.0266642,-0.0349111
48326,14:23:18.049000,-3.0045941000000003,3.416379,8.2811871,0.0483232,-0.0266642,-0.0349111
48327,14:23:18.059000,-2.9974117000000002,3.3996203,8.2261238,0.054431799999999995,-0.009559999999999999,-0.0165851
48328,14:23:18.068000,-2.8848889,3.5696013,8.3314638,0.054431799999999995,-0.009559999999999999,-0.0165851
48329,14:23:18.078000,-2.9064360000000002,3.8856222999999996,8.3841343,0.06298390000000001,0.0124311,-0.008033
48330,14:23:18.091000,-3.0931754000000002,3.6629709999999998,8.3649807,0.0336624,0.051526499999999996,-0.0141417
48331,14:23:18.097000,-3.0812049,3.5217192,8.403286900000001,0.0336624,0.051526499999999996,-0.0141417
48332,14:23:18.107000,-3.0141702,3.2607625,8.233305900000001,-0.010319799999999999,0.0564134,-0.025137200000000002
48333,14:23:18.116000,-3.2894917,3.3996203,8.1351471,-0.010319799999999999,0.0564134,-0.025137200000000002
48334,14:23:18.126000,-3.2631563999999997,3.3565266000000005,8.312311200000002,0.029997199999999998,0.035644,0.0029625999999999997
48335,14:23:18.139000,-3.2440037999999998,3.442714,8.307522800000001,0.0471015,0.0051007,-0.0116982
48336,14:23:18.146000,-3.1219049,3.3972260999999997,8.2093649,0.0471015,0.0051007,-0.0116982
48337,14:23:18.158000,-3.1338751,3.4115907999999995,8.130359599999998,0.0861968,-0.03277290000000001,0.018844999999999997
48338,14:23:18.165000,-3.0500817000000002,3.4355318999999995,8.1423302,0.0861968,-0.03277290000000001,0.018844999999999997
48339,14:23:18.175000,-3.1051458999999997,3.4905961000000003,8.099235499999999,0.0971924,-0.0535423,0.035949300000000003
48340,14:23:18.187000,-3.2320333,3.4953842000000006,8.2380943,0.0971924,-0.0535423,0.035949300000000003
48341,14:23:18.193000,-3.246398,3.4211669000000002,8.290763900000002,0.0874185,-0.0474336,0.0322841
48342,14:23:18.207000,-3.3086444999999998,3.5049605,8.3410397,0.0788664,-0.0449902,0.0005191
48343,14:23:18.213000,-3.0189586,3.8066169999999997,8.386528,0.0788664,-0.0449902,0.0005191
48344,14:23:18.223000,-2.7316667999999997,3.8712578,8.5086269,0.021445099999999998,-0.0755334,-0.0520153
48345,14:23:18.233000,-3.0716287999999996,3.6438181000000003,8.2285175,0.021445099999999998,-0.0755334,-0.0520153
48346,14:23:18.242000,-3.1745751,3.4618669,8.221335400000001,-0.0408631,-0.043768400000000006,-0.066676
48347,14:23:18.254000,-3.1458457,3.6653652,8.3434343,-0.0604107,-0.036438099999999994,-0.0459066
48348,14:23:18.262000,-3.2224569,3.5336897000000005,8.2620354,-0.0604107,-0.036438099999999994,-0.0459066
48349,14:23:18.272000,-3.3086444999999998,3.4905961000000003,8.3099174,-0.06163250000000001,-0.0535423,-0.0373545
48350,14:23:18.280000,-3.0644464,3.5193252999999998,8.321887,-0.06163250000000001,-0.0535423,-0.0373545
48351,14:23:18.290000,-2.9710765,3.5049605,8.300340700000001,-0.056745500000000004,-0.068203,0.0164016
48352,14:23:18.303000,-3.0117762000000003,3.1961217,7.7449093,-0.055523800000000005,-0.0804203,0.0750446
48353,14:23:18.310000,-3.1697867000000004,3.2607625,8.1854239,-0.056745500000000004,-0.0596509,0.0860402
48354,14:23:18.322000,-3.0452936,3.3708911,8.3410397,-0.004211199999999999,-0.048655300000000005,0.0457231
48355,14:23:18.330000,-3.0979638,3.3086444999999998,8.3506165,-0.004211199999999999,-0.048655300000000005,0.0457231
48356,14:23:18.339000,-3.0261407000000005,3.3469501000000004,8.3721638,0.0043409,-0.0755334,0.012736399999999998
48357,14:23:18.348000,-2.789125,3.4690489999999996,8.4368038,0.0165582,-0.0975245,-0.030024099999999998
48358,14:23:18.359000,-2.7220902000000002,3.6988826,8.518202800000001,0.0226669,-0.12073740000000001,-0.0898889
48359,14:23:18.370000,-2.8920712,3.6917002,8.417651199999998,-0.004211199999999999,-0.086529,-0.0691195
48360,14:23:18.378000,-2.8872831000000003,3.7347938999999997,8.451169,-0.004211199999999999,-0.086529,-0.0691195
48361,14:23:18.388000,-2.8777068,3.6677592000000003,8.4607449,-0.0494152,-0.0645378,-0.019028599999999996
48362,14:23:18.398000,-2.9255888,3.5217192,8.4607449,-0.0494152,-0.0645378,-0.019028599999999996
48363,14:23:18.407000,-3.0500817000000002,3.4068023999999997,8.3673754,-0.0799584,-0.0425467,-0.008033
48364,14:23:18.420000,-3.1242987999999996,3.3972260999999997,8.3434343,-0.07751489999999998,0.0002138,-0.009254700000000001
48365,14:23:18.427000,-3.1602101,3.3828616,8.3147049,-0.07751489999999998,0.0002138,-0.009254700000000001
48366,14:23:18.436000,-3.0644464,3.2392156,8.2069702,-0.06285419999999999,-0.0315511,-0.0642326
48367,14:23:18.446000,-2.9615002,3.2344275000000002,8.307522800000001,-0.06285419999999999,-0.0315511,-0.0642326
48368,14:23:18.455000,-2.983047,3.2344275000000002,8.3099174,-0.0701846,-0.0535423,-0.0862237
48369,14:23:18.472000,-2.8657362,3.3517382000000007,8.4487743,-0.0359761,-0.0596509,-0.085002
48370,14:23:18.474000,-2.9040418,3.4522904999999997,8.4822922,-0.0359761,-0.0596509,-0.085002
48371,14:23:18.490000,-3.0213525000000003,3.5648129,8.4583511,-0.010319799999999999,-0.0352163,-0.0593456
48372,14:23:18.495000,-3.9095633000000003,3.6557887000000004,7.981925,-0.005432899999999999,-0.014446899999999999,-0.058123900000000006
48373,14:23:18.505000,-2.8298247,3.299068,8.477503800000001,-0.005432899999999999,-0.014446899999999999,-0.058123900000000006
48374,14:23:18.515000,-2.9231944,3.4331373999999997,8.386528,0.0018975,-0.1048549,-0.14242320000000003
48375,14:23:18.542000,-3.3134327000000003,3.7467644,8.1734533,0.0238886,-0.0010079000000000002,-0.0422414
48376,14:23:18.542000,-3.0141702,3.416379,8.4200449,0.0238886,-0.0010079000000000002,-0.0422414
48377,14:23:18.551000,-2.8034897,3.0859932999999997,8.5900259,0.0141148,0.05519169999999999,-0.09111060000000001
48378,14:23:18.560000,-3.0428995999999997,3.2918858999999996,8.5493269,0.0141148,0.05519169999999999,-0.09111060000000001
48379,14:23:18.572000,-3.3541322,3.0405054,8.5708742,0.0507666,0.014874600000000002,0.023732
48380,14:23:18.580000,-3.3230089999999994,2.9974117000000002,8.659455300000001,0.0507666,0.014874600000000002,0.023732
48381,14:23:18.593000,-3.1506341,3.2056982999999994,8.7408552,0.089862,-0.1500589,-0.030024099999999998
48382,14:23:18.604000,-3.1219049,4.0292683,8.649879499999999,0.089862,-0.1500589,-0.030024099999999998
48383,14:23:18.612000,-2.5688679,4.910296400000001,8.408075300000002,0.0825316,-0.1915977,-0.0630108
48384,14:23:18.619000,-2.9375593999999996,3.2033041,7.974742900000001,0.0825316,-0.1915977,-0.0630108
48385,14:23:23.339000,-6.136075,1.8602147,-7.424099900000001,0.012893,0.2641074,0.9510245999999999
48386,14:23:23.340000,-5.2622290000000005,1.4220946,-7.9196786999999995,0.012893,0.2641074,0.9510245999999999
48387,14:23:23.340000,-4.6565218,1.8937321,-7.711391900000001,0.012893,0.2641074,0.9510245999999999
48388,14:23:23.341000,-4.0699677,2.1977827999999997,-7.881372900000001,0.012893,0.2641074,0.9510245999999999
48389,14:23:23.341000,-3.6821237,1.9823137999999998,-6.6148949,0.012893,0.2641074,0.9510245999999999
48390,14:23:23.354000,-2.8657362,1.9847078000000002,-6.7561464,-0.1092799,0.08573489999999999,0.7311133000000001
48391,14:23:23.384000,-2.6311145000000002,0.7948408,-6.4975839,0.0165582,-0.39196129999999996,-0.0813368
48392,14:23:23.385000,-2.2001767000000005,0.23222759999999998,-6.1552280999999995,0.0165582,-0.39196129999999996,-0.0813368
48393,14:23:23.385000,-2.2169354,0.2968683,-5.8846945999999996,0.0165582,-0.39196129999999996,-0.0813368
48394,14:23:23.386000,-2.6047795,0.6918946,-6.399426,0.0165582,-0.39196129999999996,-0.0813368
48395,14:23:23.398000,-3.2487918999999996,1.7883917,-6.5598307,0.7654784,-0.366305,-0.3379
48396,14:23:23.404000,-3.4882019,3.0692346,-6.622077,0.7654784,-0.366305,-0.3379
48397,14:23:23.414000,-3.8592873,3.6198773,-7.3522773,1.0415893,-0.35775290000000004,-0.3928778
48398,14:23:23.425000,-4.9893022,3.952657,-7.881372900000001,1.1478796999999998,-0.2710101,-0.585911
48399,14:23:23.433000,-5.8104777,4.3357129,-7.701815600000001,1.1478796999999998,-0.2710101,-0.585911
48400,14:23:23.444000,-5.9469414,4.488935,-7.905314,0.9218597,-0.19770629999999997,-0.5345984
48401,14:23:23.453000,-6.593348,4.3476834,-7.9986839000000005,0.9218597,-0.19770629999999997,-0.5345984
48402,14:23:23.463000,-6.8590932,4.0579977,-7.1894784,0.6567445,-0.12195910000000001,-0.3232392
48403,14:23:23.473000,-6.176775,3.8999867,-7.290030499999999,0.6567445,-0.12195910000000001,-0.3232392
48404,14:23:23.483000,-6.555042299999999,3.7922525,-7.419312,0.43683310000000003,-0.0462119,-0.23771810000000002
48405,14:23:23.493000,-6.3730912,3.6557887000000004,-7.369036200000001,0.148505,0.0613003,-0.15586229999999998
48406,14:23:23.502000,-6.2366271,3.2487918999999996,-8.0322018,-0.4733553,0.2641074,0.0164016
48407,14:23:23.511000,-6.5334954000000005,1.9655551,-8.9850531,-0.4733553,0.2641074,0.0164016
48408,14:23:23.522000,-6.875851600000001,1.3670303999999998,-8.97787,-0.5979717,0.3972759,0.1886654
48409,14:23:23.531000,-6.5239191,1.5394055,-8.5253859,-0.36339970000000005,0.5011229,0.35848579999999997
48410,14:23:23.543000,-6.466460700000001,1.7045983,-8.520597500000001,0.1643875,0.600083,0.4195723
48411,14:23:23.550000,-6.6555943,1.1970493999999998,-8.6738195,0.1643875,0.600083,0.4195723
48412,14:23:23.560000,-6.811211099999999,0.10773440000000001,-9.0784216,0.0861968,0.6184089,0.4537807
48413,14:23:23.573000,-6.5334954000000005,-0.751747,-9.2819214,0.012893,0.528001,0.38902909999999996
48414,14:23:23.580000,-6.3323908,-1.4867353,-9.4040203,0.012893,0.528001,0.38902909999999996
48415,14:23:23.591000,-6.459278599999999,-2.2193296,-9.7104654,0.15950060000000002,0.4559189,0.3022863
48416,14:23:23.599000,-6.768117,-2.9806529999999998,-10.0456381,0.15950060000000002,0.4559189,0.3022863
48417,14:23:23.611000,-6.875851600000001,-3.2631563999999997,-10.143796,0.5223542,0.4302626,0.109253
48418,14:23:23.619000,-6.796846400000001,-3.1961217,-10.0504274,0.7850261,0.3557371,-0.1008844
48419,14:23:23.627000,-7.0458326,-2.7747604999999997,-9.8636866,0.7850261,0.3557371,-0.1008844
48420,14:23:23.640000,-7.3163662,-2.4036752999999997,-9.686524400000001,0.9401857,0.11505639999999999,-0.47717709999999997
48421,14:23:23.647000,-7.2469368,-1.5130703,-9.811017,0.9401857,0.11505639999999999,-0.47717709999999997
48422,14:23:23.657000,-7.337912599999999,-0.3064446,-9.767923399999999,1.0269284,-0.10729839999999999,-0.6506626999999999
48423,14:23:23.667000,-7.6419630000000005,0.7589293,-9.8158054,1.0269284,-0.10729839999999999,-0.6506626999999999
48424,14:23:23.678000,-8.0609303,1.7141746999999998,-10.143796,0.9108641,-0.22702779999999997,-0.6738755999999999
48425,14:23:23.692000,-8.1327534,2.327064,-10.3161716,0.7214961,-0.3492008,-0.6421106
48426,14:23:23.695000,-8.1255713,2.693361,-10.3808117,0.7214961,-0.3492008,-0.6421106
48427,14:23:23.707000,-8.3530102,3.0309291000000003,-10.361659,0.5113585999999999,-0.4762607,-0.6225629
48428,14:23:23.715000,-8.3554049,3.1769691000000004,-10.675286300000002,0.22058699999999998,-0.5691121,-0.5810241
48429,14:23:23.726000,-8.5708742,2.6837847000000004,-10.7614737,-0.4794639,-0.7841365,-0.3757736
48430,14:23:23.735000,-9.521330800000001,2.6574495,-10.8045683,-0.8691957,-0.9283005999999999,-0.1729665
48431,14:23:23.745000,-9.980998,3.0596582999999997,-10.601069500000001,-1.2344928,-1.1017861,0.0554969
48432,14:23:23.757000,-10.6489506,3.6510005,-10.4741821,-1.6792023,-1.3107018,0.36337270000000005
48433,14:23:23.763000,-11.5850439,3.5624189,-10.663315800000001,-1.6792023,-1.3107018,0.36337270000000005
48434,14:23:23.773000,-11.8579712,2.5257742000000003,-11.738266000000001,-2.5686214,-2.2013426,1.0841931
48435,14:23:23.783000,-11.2139587,1.8961263,-12.750969900000001,-2.5686214,-2.2013426,1.0841931
48436,14:23:23.793000,-10.1557674,2.0086489,-13.4452591,-2.4427831,-3.3913071000000006,1.6865058000000002
48437,14:23:23.804000,-10.3688421,2.8681302000000004,-11.8172712,-2.4427831,-3.3913071000000006,1.6865058000000002
48438,14:23:23.813000,-11.4150629,3.3134327000000003,-9.7846823,-2.4989827,-3.9410852999999997,1.8929781000000003
48439,14:23:23.822000,-12.8754625,2.2097533,-8.97787,-2.7934196,-4.460319999999999,2.0860114
48440,14:23:23.833000,-13.8977432,0.7182297,-8.5924196,-3.2234682999999995,-4.8720431,2.3523482999999996
48441,14:23:23.841000,-14.843412400000002,-0.17955739999999998,-5.8056893,-3.5130181000000005,-5.1127237999999995,2.646785
48442,14:23:23.852000,-16.1505909,-0.459667,-6.7896638,-3.6388564,-5.2483358,2.9351132
48443,14:23:23.861000,-12.56423,-1.8697912,-3.0333229999999998,-3.5411178999999997,-4.8830385000000005,3.1110423
48444,14:23:23.873000,-14.496268300000002,-2.6861787,-7.6371750999999986,-3.0353220000000003,-4.2367439000000005,2.9241178
48445,14:23:23.882000,-2.1666594,-7.9962902,3.6270595,-2.5050914,-4.7791915000000005,3.7194635999999996
48446,14:23:23.893000,-6.0163698,-1.4005477,-2.9303767999999994,-2.5050914,-4.7791915000000005,3.7194635999999996
48447,14:23:23.900000,-4.8480501,-2.157083,-1.6543223000000002,-2.0982554,-5.0772934,3.7243505
48448,14:23:23.910000,-4.400353400000001,-0.8929988000000001,-0.9480630999999999,-1.7134107,-4.5287371,4.246028900000001
48449,14:23:23.925000,-3.9813862,1.0534035,0.4668492,-1.1269805,-3.0883182999999996,4.7896985999999995
48450,14:23:23.929000,-3.2559742999999997,2.6766026000000003,0.49797250000000004,-0.966934,-2.4188106,4.9265323
48451,14:23:23.941000,-3.3828616,3.8305580999999997,0.7302001,-1.0426812,-1.8018372,4.960740599999999
48452,14:23:23.948000,-3.6557887000000004,4.6158223,0.2729273,-1.0426812,-1.8018372,4.960740599999999
48453,14:23:23.958000,-3.6390300000000004,5.7123194,-0.31362690000000004,-1.2931358,-0.7865799,4.672412400000001
