,time,ax,ay,az,wx,wy,wz
22748,13:46:22.546000,7.4360704,6.3012681,2.3629756,-0.050636900000000006,0.051526499999999996,0.018844999999999997
22749,13:46:22.547000,7.369036200000001,6.248597599999999,2.327064,-0.050636900000000006,0.051526499999999996,0.018844999999999997
22750,13:46:22.547000,7.3714299,6.310844400000001,2.3940987999999996,-0.050636900000000006,0.051526499999999996,0.018844999999999997
22751,13:46:22.548000,7.4935288,6.4497018,2.4778922000000003,-0.050636900000000006,0.051526499999999996,0.018844999999999997
22752,13:46:22.548000,7.5270467000000005,6.6675649,2.497045,-0.050636900000000006,0.051526499999999996,0.018844999999999997
22753,13:46:22.549000,7.7329387999999994,6.885428,2.3318522,-0.050636900000000006,0.051526499999999996,0.018844999999999997
22754,13:46:22.563000,7.893343400000001,7.1056852,2.6957552000000002,0.0043409,0.07473930000000001,0.0664925
22755,13:46:22.563000,7.9101024,7.4600115,2.5784442000000003,0.0043409,0.07473930000000001,0.0664925
22756,13:46:22.583000,8.357798599999999,7.8646145,2.2576351000000003,0.0471015,0.11016949999999999,0.1214703
22757,13:46:22.584000,8.738459599999999,8.4631386,0.8690578999999999,0.0471015,0.11016949999999999,0.1214703
22758,13:46:22.595000,8.8629541,9.116727800000001,0.7349883,0.1069662,0.1492648,0.2338694
22759,13:46:22.602000,8.8174658,9.8636866,0.059852499999999996,0.10818789999999999,0.1382692,0.2912907
22760,13:46:22.611000,8.963505699999999,10.850055699999999,-1.0725563,0.011671299999999999,0.3032027,0.42445920000000004
22761,13:46:22.620000,9.253191900000001,11.4916744,-1.6040461000000001,0.011671299999999999,0.3032027,0.42445920000000004
22762,13:46:22.630000,8.8629541,11.618560800000001,-1.8985202,-0.221679,0.5011229,0.511202
22763,13:46:22.639000,8.2021828,11.3743629,-2.4036752999999997,-1.1660758999999998,1.2463779,0.9021554
22764,13:46:22.648000,8.4439859,10.713591599999999,-2.5401387000000004,-1.1660758999999998,1.2463779,0.9021554
22765,13:46:22.660000,9.3537436,9.3082561,-2.9638944,-1.8209229,1.5114931999999999,1.2283572
22766,13:46:22.668000,9.533301400000001,7.589293,-3.3924379,-2.6529207,1.6361096000000002,1.5716631
22767,13:46:22.678000,9.7487698,5.7003489,-2.2360882999999996,-3.5240138,1.7130785,1.9394038
22768,13:46:22.688000,10.498123199999998,4.6804628,0.2465922,-4.1971865,1.7998214,2.2167362999999995
22769,13:46:22.698000,10.6896505,4.4602059999999994,2.1786296000000003,-4.553931200000001,1.8328080000000002,2.4195435
22770,13:46:22.708000,11.8364239,3.3230089999999994,5.3460225999999995,-4.5466008,1.9146637999999998,2.1556499
22771,13:46:22.718000,12.0973806,2.0110431,8.2356997,-4.2289515,2.1846659,2.0762374
22772,13:46:22.731000,10.500516900000001,0.34714429999999996,8.2356997,-3.8575461000000004,2.6196017000000005,2.214293
22773,13:46:22.738000,8.783947900000001,-1.8434560000000002,7.6156277999999995,-3.8575461000000004,2.6196017000000005,2.214293
22774,13:46:22.746000,6.593348,-2.9375593999999996,5.8823004,-3.4336057,2.78087,2.1776409
22775,13:46:22.756000,4.4027476,-2.3988869,4.6397634000000005,-2.8398452,2.8627257,2.1006720000000003
22776,13:46:22.765000,1.9990726000000003,0.3184151,4.436265000000001,-2.1874417999999998,2.8932691000000004,2.0139294
22777,13:46:22.790000,1.1084677,2.1714474999999998,4.4626002,-0.9241735000000001,2.6990142,1.6303062
22778,13:46:22.795000,1.7740271,2.7508194,5.6572556,-0.9241735000000001,2.6990142,1.6303062
22779,13:46:22.796000,2.8106720000000003,1.8410618000000003,7.570139900000001,-0.8801912000000001,2.0258412,1.1758229
22780,13:46:22.803000,3.9837801,0.2609568,8.597209,-0.8801912000000001,2.0258412,1.1758229
22781,13:46:22.813000,5.142523799999999,-1.6351695,9.9618454,-1.0255771,1.8719032,1.0744193000000002
22782,13:46:22.823000,5.7793546,-2.3342462000000004,10.1964674,-1.0084728,1.8291428,1.0121110999999998
22783,13:46:22.832000,5.6835904,-1.6279871000000001,9.186157199999998,-0.7506878,1.8059299,1.0206633
22784,13:46:22.846000,5.4058752,-0.35432659999999994,7.9843197,0.0471015,1.7130785,0.8068605
22785,13:46:22.852000,5.2718053,2.2552409,6.6508064,0.0471015,1.7130785,0.8068605
22786,13:46:22.862000,5.1928,4.237555,6.428154900000001,0.3390948,1.611675,0.7579913
22787,13:46:22.871000,5.0754895,5.0012726999999995,7.1894784,0.3928509,1.4907238,0.7017918000000001
22788,13:46:22.881000,5.7123194,4.0843324999999995,8.2931576,-0.2778786,1.4748413999999999,0.8019736
22789,13:46:22.893000,6.191139700000001,2.4084632000000004,9.0999689,-0.7348053000000001,1.5163801000000001,0.9070423000000001
22790,13:46:22.901000,5.4681215,0.6871063000000001,9.171792,-0.7348053000000001,1.5163801000000001,0.9070423000000001
22791,13:46:22.911000,4.1202440000000005,-0.23222759999999998,9.12391,-1.1819583999999999,1.7937126,0.9827896
22792,13:46:22.920000,2.9279827999999997,-1.6662928,9.0616636,-1.1819583999999999,1.7937126,0.9827896
22793,13:46:22.930000,2.1858122000000004,-3.0644464,9.2484026,-1.2515969,1.7998214,0.958355
22794,13:46:22.945000,1.8650029,-4.601458099999999,9.588364599999998,-1.2112798999999999,1.5188236000000002,0.881386
22795,13:46:22.950000,1.8243033,-5.8272367,9.8493223,-1.2112798999999999,1.5188236000000002,0.881386
22796,13:46:22.961000,2.1522946,-6.2198687,9.8756571,-0.9693775,1.31846,0.7628782
22797,13:46:22.968000,2.1020187999999997,-5.1568885,8.958718300000001,-0.6089673000000001,1.1229832,0.5307497
22798,13:46:22.980000,1.8817616999999998,-3.7323998999999994,8.62115,0.2169219,0.7405819,0.023732
22799,13:46:22.988000,2.5209861,-2.7388489,8.3745575,0.48692409999999997,0.5878656999999999,-0.1680796
22800,13:46:22.998000,4.2160082,-1.6399577,8.305128100000001,0.48692409999999997,0.5878656999999999,-0.1680796
22801,13:46:23.010000,5.456151,-0.3064446,7.960378599999999,0.6665183000000001,0.40460630000000003,-0.2658179
22802,13:46:23.016000,5.381934200000001,0.6871063000000001,7.4767703999999995,0.7947999,0.256777,-0.28780900000000004
22803,13:46:23.027000,5.9565177,1.0366447,7.558169400000001,0.9145293,0.36306740000000004,-0.1925142
22804,13:46:23.036000,7.0649853,2.3917048,7.8023682,0.9145293,0.36306740000000004,-0.1925142
22805,13:46:23.047000,7.524652499999999,3.6342421000000003,7.9124966,0.8900948000000001,0.6013046999999999,-0.055680499999999994
22806,13:46:23.059000,7.292425200000001,3.6821237,7.905314,0.8900948000000001,0.6013046999999999,-0.055680499999999994
22807,13:46:23.066000,7.0386505,2.7939133999999997,8.230911299999999,0.7031702,0.8358768,-0.0349111
22808,13:46:23.076000,7.1248379,1.5417996999999999,8.8916826,0.41239849999999995,1.0484575999999999,0.0469448
22809,13:46:23.084000,6.885428,0.36629709999999993,9.6601877,0.148505,1.1975086000000001,0.0616056
22810,13:46:23.095000,6.1169224,-0.5458545,10.038456,0.020223400000000002,1.3221252000000001,0.0164016
22811,13:46:23.108000,5.1880121,-0.6703475999999999,10.505305300000002,0.0251103,1.4381893,-0.0630108
22812,13:46:23.114000,4.675674900000001,-0.387844,10.8093557,0.23646950000000003,1.5762448,-0.31468709999999994
22813,13:46:23.127000,3.9143515,0.08379349999999999,10.7854147,0.31466020000000006,1.5970142,-0.4319731
22814,13:46:23.134000,3.5145371,0.581766,10.337717999999999,0.31466020000000006,1.5970142,-0.4319731
22815,13:46:23.145000,3.4642611000000003,1.1515615,10.1007032,0.3647511,1.5566971,-0.5749155
22816,13:46:23.152000,3.8281641000000004,1.721357,9.885233900000001,0.3818553,1.4919455,-0.7190795999999999
22817,13:46:23.162000,4.122638200000001,2.2073591,9.6793413,0.35131209999999996,1.4210851,-0.8009354000000001
22818,13:46:23.175000,4.237555,2.305517,9.593154,0.15950060000000002,1.4369676000000002,-0.8925651
22819,13:46:23.182000,3.9406865,2.2456646,9.253191900000001,0.15950060000000002,1.4369676000000002,-0.8925651
22820,13:46:23.192000,3.2080922000000003,2.2600293,8.910836199999999,-0.1129451,1.625114,-0.8681306000000001
22821,13:46:23.202000,2.4539514,2.2983347999999997,8.573267900000001,-0.1129451,1.625114,-0.8681306000000001
22822,13:46:23.211000,1.9487964,2.3581872,8.4391975,-0.2949828,1.7387346999999997,-0.8302569
22823,13:46:23.225000,1.6902337,2.422828,8.305128100000001,-0.3817256,1.7326262,-0.7679486999999999
22824,13:46:23.231000,1.5944698,2.5568974,8.1136007,-0.4440338,1.7179653999999998,-0.6873146
22825,13:46:23.243000,1.4484297,2.8417952,7.895737599999999,-0.4770205,1.7130785,-0.5944632
22826,13:46:23.250000,1.3167541999999999,3.3589206,7.6970277000000005,-0.4770205,1.7130785,-0.5944632
22827,13:46:23.260000,1.3550598999999999,3.8329519999999997,7.6299925,-0.5784239999999999,1.6996396,-0.4490773
22828,13:46:23.270000,1.2688723999999998,4.0172977,7.682663000000001,-0.5784239999999999,1.6996396,-0.4490773
22829,13:46:23.279000,1.1515615,3.8305580999999997,7.8143387,-0.9009606,1.7680563999999999,-0.2450485
22830,13:46:23.290000,0.9313045,3.2416098,7.907708199999999,-0.9009606,1.7680563999999999,-0.2450485
22831,13:46:23.298000,0.5889483,2.3773401,8.156694400000001,-1.0829983,1.8083735,-0.1509753
22832,13:46:23.307000,0.2585627,1.7572685000000001,8.585238499999999,-1.323679,1.8486904999999998,-0.04101969999999999
22833,13:46:23.318000,0.18195150000000002,1.0964973,8.9659004,-1.323679,1.8486904999999998,-0.04101969999999999
22834,13:46:23.328000,-0.16758689999999998,0.775688,9.1574278,-1.31024,1.7998214,0.0029625999999999997
22835,13:46:23.340000,-0.47642559999999995,0.7469588,9.3321972,-1.31024,1.7998214,0.0029625999999999997
22836,13:46:23.347000,-0.7206236999999999,1.0725563,9.301074,-1.1465281999999999,1.7155221,-0.008033
22837,13:46:23.359000,-0.9552454,1.5465877000000001,9.169398300000001,-1.0658941000000002,1.6519921000000002,-0.03613280000000001
22838,13:46:23.368000,-1.0486152,1.9487964,9.131093,-1.0365726,1.5884621,-0.07644989999999999
22839,13:46:23.376000,-1.2018377,2.0349839,9.0065994,-1.0365726,1.5884621,-0.07644989999999999
22840,13:46:23.388000,-1.5322232,1.9966784,9.0568762,-1.0658941000000002,1.5176017,-0.11798869999999999
22841,13:46:23.396000,-1.9057026000000001,1.6710808000000001,9.195733099999998,-1.2344928,1.3648856000000003,-0.15952750000000002
22842,13:46:23.405000,-2.2408764,1.0725563,9.533301400000001,-1.2344928,1.3648856000000003,-0.15952750000000002
22843,13:46:23.414000,-2.5138037,0.5650073,10.2156191,-1.2992443999999999,1.2659256,-0.1949576
22844,13:46:23.424000,-2.9088298999999997,0.48600200000000005,9.8445339,-1.323679,1.0056973,-0.23893989999999998
22845,13:46:23.434000,-3.270339,0.0119705,10.021697,-1.323679,1.0056973,-0.23893989999999998
22846,13:46:23.443000,-3.4211669000000002,-1.1467732,10.651345300000001,-1.265036,0.6917127,-0.3696649
22847,13:46:23.456000,-4.472176599999999,-1.6830512999999998,10.917090400000001,-1.1563021,0.5182270999999999,-0.4502991
22848,13:46:23.463000,-4.488935,-1.4939176,11.252264,-0.9559385,0.3056462,-0.3024698
22849,13:46:23.474000,-4.2160082,-1.6878396,12.1859627,-0.7665703,0.035644,-0.333013
22850,13:46:23.482000,-3.4666550000000003,-1.8961263,12.8491278,-0.7665703,0.035644,-0.333013
22851,13:46:23.492000,-1.8338796000000002,-2.5138037,13.418923399999999,-0.6309584,-0.19770629999999997,-0.351339
22852,13:46:23.506000,-1.4244888,-1.5346173,13.383011800000002,-0.25955259999999997,-0.632642,-0.1790751
22853,13:46:23.511000,-0.8163876999999999,-2.3964927000000005,12.679146800000002,-0.25955259999999997,-0.632642,-0.1790751
22854,13:46:23.523000,-1.6375635,-2.813066,12.013588,0.36352940000000006,-0.8525533000000002,-0.5431505
22855,13:46:23.531000,-1.6088343999999999,-3.3134327000000003,11.632926,0.7996868,-1.0895689,-0.5712503000000001
22856,13:46:23.542000,-1.6423517,-3.1362693,11.283387199999998,1.2786046999999998,-1.3302495,-0.5602548
22857,13:46:23.555000,-1.4484297,-2.6502673999999997,10.797385199999999,1.2786046999999998,-1.3302495,-0.5602548
22858,13:46:23.559000,-1.3071779,-2.0445604,10.378418,1.6756668000000001,-1.4707484,-0.5297115
22859,13:46:23.572000,-0.8307523000000001,-1.4651883999999997,9.6362467,2.1032722,-1.4621964,-0.3721084
22860,13:46:23.579000,-0.5003666,-0.8834224,8.7719784,2.1240416,-1.3937795,-0.19984449999999998
22861,13:46:23.590000,-0.4093909,-0.4261496,8.319493300000001,2.1069374,-1.2887108,-0.08744539999999999
22862,13:46:23.600000,-0.7900524999999999,-0.1149167,7.4169178,2.0959418000000003,-1.2080765,-0.0788933
22863,13:46:23.609000,-0.7589293,0.0502761,6.9596448,2.1387023999999997,-1.2227373,-0.15586229999999998
22864,13:46:23.623000,-0.775688,-0.3519325,6.322814900000001,2.1814628,-1.292376,-0.1864055
22865,13:46:23.627000,-0.4931844,-0.7613234,5.6907725,2.1814628,-1.292376,-0.1864055
22866,13:46:23.640000,-0.5482486,-1.0773443999999999,5.384327900000001,2.2669837000000004,-1.2386198,-0.0642326
22867,13:46:23.647000,-0.6368303000000001,-1.1467732,4.852837999999999,2.3500614,-1.1811986,-0.0446849
22868,13:46:23.657000,-0.8738461,-1.163532,4.5487876,2.3891568,-1.1286643,-0.012919899999999998
22869,13:46:23.667000,-0.9791864,-1.1563497999999999,4.2495255,2.3891568,-1.1286643,-0.012919899999999998
22870,13:46:23.676000,-1.0438271000000001,-1.1563497999999999,3.8975928,2.3635004,-1.0859036,0.0445014
22871,13:46:23.689000,-1.1371969,-1.1587437,3.2775211000000004,2.0910549,-1.0309258,0.0982574
22872,13:46:23.696000,-1.5058881000000002,-1.4149123,2.8657362,1.8638131999999998,-0.9173049999999999,0.13735279999999997
22873,13:46:23.706000,-1.7476921000000003,-1.649534,2.4922566,1.64268,-0.8476664,0.12269200000000001
22874,13:46:23.716000,-1.6758691000000003,-1.4939176,2.0613191000000004,1.64268,-0.8476664,0.12269200000000001
22875,13:46:23.725000,-1.5920756,-1.0893148000000001,2.135536,1.2224051999999999,-0.6143161,0.1251355
22876,13:46:23.737000,-1.5274348999999998,-0.7637175,2.422828,0.9792811,-0.42616980000000004,0.1483484
22877,13:46:23.743000,-1.1778966,-0.35911479999999996,3.0548699,0.9792811,-0.42616980000000004,0.1483484
22878,13:46:23.757000,-0.6559831,0.22265120000000002,4.0915146,0.40262470000000006,-0.0559857,0.20088270000000003
22879,13:46:23.763000,0.3615089,1.2233844999999999,5.33884,0.1423964,0.12849539999999998,0.2057697
22880,13:46:23.773000,1.1252263999999998,2.3964927000000005,7.1822957999999995,0.1423964,0.12849539999999998,0.2057697
22881,13:46:23.784000,0.9097575000000001,3.5049605,9.0903931,-0.3951646,0.6465086999999999,0.0335058
22882,13:46:23.791000,0.4620611,3.8209815000000003,10.8404789,-0.3951646,0.6465086999999999,0.0335058
22883,13:46:23.803000,-0.5027608,2.7915192,12.092593199999998,-1.3041314,1.0240231,-0.2120618
22884,13:46:23.811000,-1.6662928,0.47642559999999995,12.4804373,-1.3041314,1.0240231,-0.2120618
22885,13:46:23.821000,-2.956712,-1.8266973000000002,12.5283194,-1.9076657,1.1364222,-0.28780900000000004
22886,13:46:23.834000,-3.9885685,-3.7467644,12.5115604,-2.5160871,1.1315353000000001,-0.3733301
22887,13:46:23.841000,-4.8911432999999995,-5.5447326,12.569018400000001,-2.5160871,1.1315353000000001,-0.3733301
22888,13:46:23.853000,-5.5662794,-7.1463852,12.671964599999999,-2.3291624,0.8908545,-0.3293478
22889,13:46:23.860000,-6.0020055999999995,-8.2811871,12.750969900000001,-2.0163995999999997,0.7088169,-0.2450485
22890,13:46:23.871000,-6.1264987,-8.9036531,12.8347626,-1.5973464,0.5182270999999999,-0.1607492
22891,13:46:23.880000,-5.843995099999999,-8.7959194,12.865886699999999,-1.1013242,0.333746,-0.1314277
22892,13:46:23.888000,-5.197588400000001,-7.17272,12.8491278,-1.1013242,0.333746,-0.1314277
22893,13:46:23.903000,-4.4602059999999994,-5.2430763,12.9568624,-0.14715350000000002,0.0295353,-0.021472
22894,13:46:23.908000,-3.8329519999999997,-3.9670214999999995,13.035867699999999,0.1130748,-0.0535423,-0.009254700000000001
22895,13:46:23.921000,-3.5887538999999995,-3.0117762000000003,12.9592571,0.20592629999999998,-0.0914159,-0.021472
22896,13:46:23.928000,-3.4020143,-2.61675,12.7270288,0.20592629999999998,-0.0914159,-0.021472
22897,13:46:23.939000,-3.4307434999999997,-2.6502673999999997,12.3679142,0.076423,-0.1170722,-0.043463199999999994
22898,13:46:23.951000,-3.5336897000000005,-2.9399533,11.877123800000001,-0.0408631,-0.1280678,-0.0520153
22899,13:46:23.956000,-3.6198773,-3.0835993,11.194806100000001,-0.0408631,-0.1280678,-0.0520153
22900,13:46:23.968000,-3.6940942000000003,-3.0979638,10.443059,-0.1789185,-0.1683848,-0.07156289999999998
22901,13:46:23.977000,-3.6869121,-2.9615002,9.923539199999999,-0.1789185,-0.1683848,-0.07156289999999998
22902,13:46:23.988000,-3.6174831,-2.7029376,8.9754763,-0.2717699,-0.2429103,-0.0740064
22903,13:46:23.996000,-3.3684969,-2.5353506,8.9970226,-0.2717699,-0.2429103,-0.0740064
22904,13:46:24.006000,-3.1147225,-2.4324043,8.5924196,-0.34996059999999996,-0.2685667,-0.058123900000000006
22905,13:46:24.020000,-2.9662883,-2.3581872,8.410469099999998,-0.5148941,-0.38707440000000004,-0.025137200000000002
22906,13:46:24.025000,-2.7771543999999997,-2.5425327,7.9651666,-0.5148941,-0.38707440000000004,-0.025137200000000002
22907,13:46:24.037000,-2.4395863999999996,-2.7364547000000004,7.5270467000000005,-0.6150759,-0.49703,-0.027580700000000003
22908,13:46:24.044000,-2.0517426,-2.8034897,7.13202,-0.6150759,-0.49703,-0.027580700000000003
22909,13:46:24.054000,-1.6399577,-2.640691,6.717841099999999,-0.5002333,-0.5129125,0.0102929
22910,13:46:24.067000,-1.4484297,-2.4659216,6.246203400000001,-0.4037167,-0.483591,0.040836199999999996
22911,13:46:24.074000,-1.2329608,-2.2672114,5.990035099999999,-0.4037167,-0.483591,0.040836199999999996
22912,13:46:24.085000,-1.0845268,-1.9583727,5.6644373,-0.2656613,-0.4298349,0.1190268
22913,13:46:24.092000,-0.8475109000000001,-1.7261453000000002,5.6716199000000005,-0.2656613,-0.4298349,0.1190268
22914,13:46:24.103000,-0.5362781,-1.6447458,5.726684099999999,-0.27910029999999997,-0.4420522,0.19966099999999998
22915,13:46:24.112000,-0.35432659999999994,-1.623199,5.834418299999999,-0.27910029999999997,-0.4420522,0.19966099999999998
22916,13:46:24.122000,-0.0933698,-1.7572685000000001,5.9948235,-0.33896509999999996,-0.46893029999999997,0.22165210000000002
22917,13:46:24.136000,0.2034984,-1.8195150000000002,6.2916913,-0.3695083,-0.5349036,0.244865
22918,13:46:24.142000,0.5841601,-1.6758691000000003,6.5670128,-0.3695083,-0.5349036,0.244865
22919,13:46:24.153000,0.8403287,-1.4268829,6.815999000000001,-0.26932649999999997,-0.49336490000000005,0.28762550000000003
22920,13:46:24.160000,0.9839745999999999,-1.4173065,6.9548569,-0.26932649999999997,-0.49336490000000005,0.28762550000000003
22921,13:46:24.170000,0.9169398000000001,-1.5274348999999998,6.9955564,-0.26932649999999997,-0.3638616,0.36092929999999995
22922,13:46:24.186000,0.775688,-1.7692389,7.1296258,-0.266883,-0.34309209999999996,0.41835059999999996
22923,13:46:24.190000,0.5123371,-1.9464022,7.2684841,-0.266883,-0.34309209999999996,0.41835059999999996
22924,13:46:24.202000,0.43333190000000005,-2.1762357000000003,7.570139900000001,-0.1324928,-0.4530478,0.4904326
22925,13:46:24.208000,0.581766,-2.303123,8.0298071,-0.1324928,-0.4530478,0.4904326
22926,13:46:24.218000,0.9241222,-2.2241178,8.362587,0.2853387,-0.6033205,0.5539625
22927,13:46:24.231000,1.4029418,-1.7788153999999998,8.6019974,0.5431236,-0.6228682,0.6052751999999999
22928,13:46:24.238000,1.9368258999999999,-1.1300146999999998,8.7360659,0.5431236,-0.6228682,0.6052751999999999
22929,13:46:24.248000,2.2073591,-0.2250453,8.5900259,1.0904584,-0.515356,0.6822441
22930,13:46:24.256000,2.47071,0.7613234,8.4751101,1.0904584,-0.515356,0.6822441
22931,13:46:24.265000,2.7292726000000003,1.6567163,8.3410397,1.3971125,-0.3039968,0.5735102
22932,13:46:24.275000,2.8465835999999998,2.3557932,8.187817599999999,1.3971125,-0.3039968,0.5735102
22933,13:46:24.285000,2.8465835999999998,2.9662883,8.290763900000002,1.3726778999999998,-0.217254,0.4415634
22934,13:46:24.296000,2.8034897,3.3684969,8.5708742,1.1075627000000001,-0.20625839999999998,0.2155435
22935,13:46:24.305000,2.8489776,3.7276117999999996,9.0065994,1.1075627000000001,-0.20625839999999998,0.2155435
22936,13:46:24.316000,2.8465835999999998,3.8497107,9.392048800000001,0.6652965999999999,-0.3638616,-0.043463199999999994
22937,13:46:24.324000,2.3964927000000005,3.6917002,9.4926023,0.6652965999999999,-0.3638616,-0.043463199999999994
22938,13:46:24.334000,1.7620566000000002,3.1793633,9.3226213,0.4417201,-0.4273915,-0.16319270000000002
22939,13:46:24.345000,1.2856309,2.4443748,9.293891,0.23036089999999998,-0.4958083,-0.292696
22940,13:46:24.354000,0.9767923000000001,1.8243033,9.3537436,0.0910837,-0.6204246999999999,-0.45885119999999996
22941,13:46:24.364000,1.0964973,1.3694245,9.4183836,0.17538299999999998,-1.0492518,-0.6335585
22942,13:46:24.373000,1.4268829,1.1252263999999998,9.571606599999999,0.17538299999999998,-1.0492518,-0.6335585
22943,13:46:24.384000,1.7381157999999999,0.9432749,9.6147013,0.46493290000000004,-1.4084401000000002,-0.6848711
22944,13:46:24.392000,1.9942843000000001,0.8499051,9.559636099999999,0.46493290000000004,-1.4084401000000002,-0.6848711
22945,13:46:24.402000,2.1906002,0.7924467,9.346562400000002,0.6054318000000001,-1.5367217,-0.6909798
22946,13:46:24.416000,2.1451125,0.6703475999999999,8.989841499999999,0.8595514999999999,-1.7285332999999998,-0.6653235
22947,13:46:24.422000,2.159477,0.6727418000000001,8.6810017,0.8595514999999999,-1.7285332999999998,-0.6653235
22948,13:46:24.434000,2.2193296,0.6631654,8.3697691,1.15521,-1.8494843999999997,-0.6066805000000001
22949,13:46:24.441000,2.4443748,0.7948408,8.187817599999999,1.15521,-1.8494843999999997,-0.6066805000000001
22950,13:46:24.451000,2.7556078,0.9863687,8.1710587,1.6109151000000002,-1.9643271,-0.5260463000000001
22951,13:46:24.464000,2.9638944,1.2736604999999999,8.130359599999998,1.8748087,-1.9899832999999998,-0.46740329999999997
22952,13:46:24.470000,3.126693,1.5944698,8.0417776,1.8748087,-1.9899832999999998,-0.46740329999999997
22953,13:46:24.481000,3.1338751,1.7692389,7.6635098,2.0971634,-1.9826531000000003,-0.4075385
22954,13:46:24.490000,3.0907815,1.8673970000000002,7.0937147,2.2865314,-1.9545534,-0.3562259
22955,13:46:24.499000,3.0452936,2.0900483,6.3587264999999995,2.5577555,-1.9032407,-0.2633744
22956,13:46:24.511000,2.8106720000000003,2.303123,5.6189499000000005,2.6542721,-1.9130144,-0.20228800000000002
22957,13:46:24.518000,2.5808383999999998,2.52338,5.044365900000001,2.6542721,-1.9130144,-0.20228800000000002
22958,13:46:24.529000,2.4419807999999996,2.8777068,4.7187686,2.8045447,-2.0119746,-0.10821480000000001
22959,13:46:24.538000,2.4539514,3.4068023999999997,4.682857,2.8045447,-2.0119746,-0.10821480000000001
22960,13:46:24.551000,2.619144,3.9765980000000005,4.8480501,2.9145005,-2.0987175,-0.07644989999999999
22961,13:46:24.558000,3.2679447999999995,4.3309245,5.5710678,3.0207908,-2.2208902999999998,-0.0654543
22962,13:46:24.567000,4.1800966,4.2758603,6.6555943,3.0146822999999996,-2.3112984,-0.0727847
22963,13:46:24.580000,5.3268695,3.7252178,8.0609303,2.7129152000000003,-2.2489901000000003,-0.004367800000000001
22964,13:46:24.587000,7.0386505,3.4570785,9.427961300000002,2.7129152000000003,-2.2489901000000003,-0.004367800000000001
22965,13:46:24.598000,9.4758434,3.9957507000000003,11.1780472,2.6041811000000004,-2.1622474,0.18744370000000002
22966,13:46:24.606000,12.542682600000001,5.2789874,13.0622034,2.6041811000000004,-2.1622474,0.18744370000000002
22967,13:46:24.616000,14.6327324,7.8598261,13.1292381,3.5253650999999997,-2.2294424,0.511202
22968,13:46:24.630000,14.3550158,11.7286901,10.8165379,4.435554,-2.4566841,0.5087585
22969,13:46:24.635000,12.547472,14.0820894,6.1839571,4.435554,-2.4566841,0.5087585
22970,13:46:24.646000,10.8141441,13.5553865,3.8999867,5.2516689,-2.9869146,-0.1155452
22971,13:46:24.655000,8.5636911,12.243420599999999,2.0876541,4.797185900000001,-2.8525245,0.1764481
22972,13:46:24.664000,7.0530152,10.5029106,0.6009188,3.9566357000000005,-2.7902162,0.7567696
22973,13:46:24.674000,7.400158900000001,8.6833963,-0.8355404000000001,3.9566357000000005,-2.7902162,0.7567696
22974,13:46:24.683000,7.960378599999999,7.062591599999999,-1.7764213,3.1246378,-2.8745155,0.9155943999999999
22975,13:46:24.696000,8.0537481,5.757807700000001,-2.6287205,2.2853098,-2.7303514,0.6223794
22976,13:46:24.703000,7.687450900000001,4.3213482,-3.270339,2.2853098,-2.7303514,0.6223794
22977,13:46:24.712000,7.203843099999999,2.8777068,-3.9454749,2.0849462,-2.3650544,0.5258628000000001
22978,13:46:24.722000,7.0865326,1.8841558,-4.4147182,1.8858043000000002,-1.8714756999999997,0.4036898
22979,13:46:24.731000,7.852644000000001,1.4963118,-4.7355275,1.6695581999999998,-1.2483938,0.1532353
22980,13:46:24.746000,8.7145185,2.4467689999999997,-4.5009055,1.8772521,-1.1237773000000002,0.18744370000000002
22981,13:46:24.752000,9.935509699999999,4.0699677,-3.9335042999999996,2.2645404,-1.0565822,0.3047297
22982,13:46:24.761000,11.6257439,5.9038477,-3.2104863999999997,2.2645404,-1.0565822,0.3047297
22983,13:46:24.771000,13.4739876,8.099235499999999,-3.1099343,3.0574427,-1.0077129999999999,0.2692996
22984,13:46:24.781000,14.0581484,10.651345300000001,-3.4666550000000003,3.4337353999999998,-0.9344091999999998,0.1898872
22985,13:46:24.795000,13.5338402,12.894616099999999,-4.2327666,3.7892587,-0.8501099,-0.039798
22986,13:46:24.799000,12.695905699999999,14.0796947,-4.6086402,3.7892587,-0.8501099,-0.039798
22987,13:46:24.811000,11.527585,13.572146400000001,-4.7283449,2.813097,-0.217254,-0.4246427
22988,13:46:24.819000,9.854109800000002,11.8148766,-4.6708865,1.4814118,0.12360850000000001,-0.4087602
22989,13:46:24.830000,9.008994099999999,9.2029161,-4.634975,0.029997199999999998,0.3459632,-0.3403434
22990,13:46:24.847000,8.108812299999999,7.1799021,-3.7850699,-1.0182467,0.5805353,-0.2487137
22991,13:46:24.848000,6.8183932,6.0427051,-2.2001767000000005,-1.0182467,0.5805353,-0.2487137
22992,13:46:24.861000,6.0498877,5.116189,-0.6583770999999999,-1.5325947,0.8309898000000001,-0.0959975
22993,13:46:24.868000,5.9996114,4.4626002,0.42136140000000005,-1.6816457999999999,0.9385020000000001,-0.1509753
22994,13:46:24.879000,6.112133999999999,4.4530234,1.3215424999999998,-1.4030913999999999,0.7918945,-0.34889549999999997
22995,13:46:24.887000,6.595742200000001,4.946208,1.7285392,-1.4030913999999999,0.7918945,-0.34889549999999997
22996,13:46:24.896000,7.1439905,5.901453500000001,1.6375635,-1.0524551000000002,0.6599478,-0.3220175
22997,13:46:24.909000,7.2876363,6.794452199999999,1.4268829,-0.5833109999999999,0.5402182,-0.3440086
22998,13:46:24.916000,7.225389999999999,7.424099900000001,1.4173065,-0.5833109999999999,0.5402182,-0.3440086
22999,13:46:24.930000,7.1894784,7.907708199999999,1.7165686999999998,-0.7054838999999999,0.5438834,-0.42219929999999994
23000,13:46:24.935000,7.0123148,8.0657187,2.2983347999999997,-0.8789693999999999,0.5194488,-0.4283079000000001
23001,13:46:24.946000,6.8303633,7.809549799999999,2.8944654,-1.0683376,0.47057970000000005,-0.41853409999999996
23002,13:46:24.960000,6.6891122,7.1918726,3.4283495000000004,-1.2320493000000001,0.4143801,-0.3904343
23003,13:46:24.966000,6.820787400000001,6.4712491,3.8544991000000004,-1.3517787,0.36428920000000004,-0.3317913
23004,13:46:24.976000,7.1248379,5.927788700000001,3.9167454,-1.3872089,0.320307,-0.2450485
23005,13:46:24.983000,7.3043957,5.8152661,3.3924379,-1.2467101,0.2286772,-0.11065830000000001
23006,13:46:24.993000,6.7441759,5.7075315,2.5856267999999996,-1.2467101,0.2286772,-0.11065830000000001
23007,13:46:25.003000,5.6596494,5.2382879,1.8386679,-0.7421358,0.2189034,0.06038380000000001
23008,13:46:25.012000,5.209559,4.927054900000001,1.5585582,-0.7421358,0.2189034,0.06038380000000001
23009,13:46:25.026000,5.8607535,5.310111,1.6974159,-0.298648,0.1199433,-0.009254700000000001
23010,13:46:25.032000,6.782482099999999,6.1839571,1.9559786,-0.298648,0.1199433,-0.009254700000000001
23011,13:46:25.044000,7.2062368,6.629259599999999,2.0708954,0.0190017,0.0246484,0.015179900000000001
23012,13:46:25.052000,7.273272,6.856699000000001,2.0493486,0.0190017,0.0246484,0.015179900000000001
23013,13:46:25.062000,7.055409,7.081744199999999,1.9128848000000003,0.058097,0.1321606,0.0261754
23014,13:46:25.076000,6.8423338000000005,7.2229962,1.8985202,0.0556536,0.16270379999999998,0.013958100000000001
23015,13:46:25.081000,6.653200599999999,7.1511731,1.7788153999999998,-0.0029894,0.17736459999999998,0.015179900000000001
23016,13:46:25.095000,6.5430722,6.8734574,1.6255928999999998,-0.0921757,0.1871384,0.05061
23017,13:46:25.100000,6.732205400000001,6.7705116,1.4556118999999998,-0.1581491,0.1944688,0.0897053
23018,13:46:25.110000,6.938097999999999,6.940492599999999,1.4340651000000002,-0.1581491,0.1944688,0.0897053
23019,13:46:25.119000,7.0745621,7.165537400000001,1.4340651000000002,-0.1459318,0.22989899999999996,0.1532353
23020,13:46:25.129000,6.8734574,7.196661,1.4484297,-0.1459318,0.22989899999999996,0.1532353
23021,13:46:25.142000,6.6340475,7.0386505,1.3766067,-0.23633979999999996,0.32275040000000005,0.172783
23022,13:46:25.148000,6.595742200000001,6.8734574,1.4843413,-0.23633979999999996,0.32275040000000005,0.172783
23023,13:46:25.159000,6.6891122,6.8183932,1.6806574,-0.4049384,0.3447415,0.16789600000000002
23024,13:46:25.168000,6.909369,6.861486900000001,1.9823137999999998,-0.4049384,0.3447415,0.16789600000000002
23025,13:46:25.180000,7.218207400000001,6.9883742,2.3079112,-0.46602489999999996,0.3093114,0.16789600000000002
23026,13:46:25.191000,7.4169178,6.9476743,2.592809,-0.5063419,0.2995375,0.1556787
23027,13:46:25.197000,7.5461993000000005,6.9141569,2.667026,-0.546659,0.2946506,0.14346140000000002
23028,13:46:25.208000,7.529440400000001,6.7992406,2.8322186,-0.5820892,0.2946506,0.13002239999999998
23029,13:46:25.216000,7.400158900000001,6.629259599999999,2.8753126,-0.5820892,0.2946506,0.13002239999999998
23030,13:46:25.226000,7.230177900000001,6.4305490999999995,2.9734707,-0.6126324000000001,0.2909854,0.1153617
23031,13:46:25.240000,7.1559610000000005,6.0666461,3.0883875,-0.6786058,0.24455970000000002,0.09947919999999999
23032,13:46:25.246000,7.17272,5.7913251,3.2440037999999998,-0.6798276,0.20424260000000002,0.0970357
23033,13:46:25.258000,7.1894784,5.4705157,3.3421616999999997,-0.6492844,0.16270379999999998,0.09947919999999999
23034,13:46:25.265000,7.232572599999999,5.2215295,3.4834137000000003,-0.6492844,0.16270379999999998,0.09947919999999999
23035,13:46:25.276000,7.2445431,5.0084542999999995,3.4762315999999998,-0.4990116,0.0759611,0.0970357
23036,13:46:25.285000,7.2948189,4.8624144,3.4522904999999997,-0.4990116,0.0759611,0.0970357
23037,13:46:25.294000,7.3091836,4.8360796,3.3014622000000005,-0.3890559,0.039309199999999996,0.0848184
23038,13:46:25.307000,7.2948189,5.1090064,3.3948319,-0.1276059,-0.0181121,0.05061
23039,13:46:25.314000,7.3403072,5.48488,3.3996203,-0.1276059,-0.0181121,0.05061
23040,13:46:25.324000,7.412129400000001,5.729078299999999,3.3684969,0.0800882,-0.062094399999999994,0.012736399999999998
23041,13:46:25.335000,7.3810066999999995,5.8320246,3.3038561,0.1130748,-0.07797689999999999,-0.0031460999999999998
23042,13:46:25.343000,7.4264946,5.9110298,3.2009101,0.1289573,-0.0889724,-0.019028599999999996
23043,13:46:25.356000,7.4624062,6.0115819,3.1626046000000003,0.1375094,-0.09874630000000001,-0.0349111
23044,13:46:25.362000,7.483952499999999,6.0762224,3.1649985000000003,0.1375094,-0.09874630000000001,-0.0349111
23045,13:46:25.372000,7.5342288,6.152833900000001,3.1554222000000003,0.12529210000000002,-0.11585050000000001,-0.0495718
23046,13:46:25.382000,7.517469900000001,6.1648045,3.2176687999999998,0.12529210000000002,-0.11585050000000001,-0.0495718
23047,13:46:25.391000,7.6635098,6.140863400000001,3.2440037999999998,0.1094097,-0.1292895,-0.06789780000000001
23048,13:46:25.401000,7.766456599999999,6.1097398,3.3541322,0.1094097,-0.1292895,-0.06789780000000001
23049,13:46:25.410000,7.9508018,6.0379171,3.5169311000000003,0.1191835,-0.1353981,-0.0837802
23050,13:46:25.423000,8.0369892,5.8176599,3.3684969,0.13506600000000002,-0.14028510000000002,-0.09477580000000001
23051,13:46:25.430000,8.070507000000001,5.6979551,3.0117762000000003,0.15827879999999997,-0.1439503,-0.0972193
23052,13:46:25.439000,7.9938955,5.5231862000000005,2.6789966,0.1863786,-0.1488372,-0.0752281
23053,13:46:25.450000,7.934042900000001,5.2837758,2.2241178,0.21203490000000003,-0.158611,-0.0239155
23054,13:46:25.459000,7.974742900000001,5.1305537,1.9104908,0.252352,-0.1830456,0.0493883
23055,13:46:25.472000,8.2093649,5.334052099999999,1.7189629000000002,0.5138020999999999,-0.30277509999999996,0.23020429999999997
23056,13:46:25.478000,8.4870796,5.8846945999999996,1.2808429,0.5138020999999999,-0.30277509999999996,0.23020429999999997
23057,13:46:25.490000,8.496656399999999,6.555042299999999,0.5362781,0.9291902,-0.4872562,0.47699359999999996
23058,13:46:25.498000,8.2261238,7.7616682,-0.7349883,0.9291902,-0.4872562,0.47699359999999996
23059,13:46:25.509000,8.7312784,9.3369846,-2.1906002,1.2040792,-0.6937285,0.6077186
23060,13:46:25.523000,9.633853,11.316905,-3.7036707000000004,1.0782411,-0.7523715,0.49409780000000003
23061,13:46:25.530000,10.8093557,13.0550203,-5.0778837,0.6726270000000001,-0.6839546999999999,0.31450359999999994
23062,13:46:25.539000,12.6743593,13.9360495,-6.385061299999999,0.6726270000000001,-0.6839546999999999,0.31450359999999994
23063,13:46:25.545000,13.5098991,13.7110043,-7.395371000000001,-1.2137233,0.08573489999999999,0.10803130000000001
23064,13:46:25.555000,13.241760300000001,12.3918552,-8.503838499999999,-1.2137233,0.08573489999999999,0.10803130000000001
23065,13:46:25.565000,12.7054815,10.198861099999998,-8.5086269,-2.7054551,0.7430253000000001,0.15445699999999998
23066,13:46:25.576000,11.6065912,8.0537481,-7.0673794999999995,-4.285151,1.4614022,0.21065660000000003
23067,13:46:25.588000,10.3305359,5.4082689,-4.4626002,-6.799469900000001,2.8761648999999996,0.33893809999999996
23068,13:46:25.594000,9.1741858,3.1410575,-0.27053309999999997,-6.799469900000001,2.8761648999999996,0.33893809999999996
23069,13:46:25.606000,8.2883701,0.5267016999999999,5.3867221,-7.7695231,3.8816483,0.16789600000000002
23070,13:46:25.615000,7.2565136,-2.4515569,11.3504219,-7.7695231,3.8816483,0.16789600000000002
23071,13:46:25.624000,4.8887496,-6.1863508000000005,13.371042300000001,-5.7622218,3.9769433,0.07870980000000001
23072,13:46:25.637000,1.7285392,-8.5086269,11.6903839,-3.7072732000000004,3.5859897000000003,0.056718700000000004
23073,13:46:25.643000,-0.8068113,-8.4942617,9.1263037,-1.6645415000000001,3.0545373,-0.1094366
23074,13:46:25.654000,-2.5616858,-4.3931708,7.4671940999999995,-1.6645415000000001,3.0545373,-0.1094366
23075,13:46:25.663000,-3.3900437000000005,1.4651883999999997,8.2117586,0.0593188,2.3972467999999996,-0.3696649
23076,13:46:25.673000,-1.7500861,6.2797208,9.5404844,1.2932655,1.5909057,0.14346140000000002
23077,13:46:25.682000,0.8546931999999999,9.463872,10.1797075,1.2932655,1.5909057,0.14346140000000002
23078,13:46:25.691000,3.3732852999999996,9.4830246,9.7846823,0.3684163,0.7674599,0.0811532
23079,13:46:25.702000,4.4290824,6.0786166,8.3961039,-0.194801,0.5463269000000001,0.0689359
23080,13:46:25.711000,5.2023764,3.0907815,7.0769558,-0.194801,0.5463269000000001,0.0689359
23081,13:46:25.721000,6.0786166,2.47071,7.395371000000001,-0.5210028,0.37406300000000003,-0.0422414
23082,13:46:25.730000,7.1032910000000005,3.1817572,8.1136007,-0.5210028,0.37406300000000003,-0.0422414
23083,13:46:25.739000,7.2469368,5.2670169,8.6091785,-0.23389629999999997,0.6355130999999999,-0.1045496
23084,13:46:25.752000,7.5773225,6.2055039,8.7049427,-0.4623597,0.7381384,-0.2633744
23085,13:46:25.758000,7.4336767,6.339573400000001,7.6850572,-0.4623597,0.7381384,-0.2633744
23086,13:46:25.770000,6.9572511,4.6972213,6.4018202,-1.278475,0.9397238000000001,-0.6079022
23087,13:46:25.779000,5.9565177,2.4300102999999997,5.0515485,-1.278475,0.9397238000000001,-0.6079022
23088,13:46:25.790000,4.5463934,0.8451169,3.8832282999999994,-1.5692466,1.0276882999999999,-0.7227448000000001
23089,13:46:25.800000,3.1793633,0.11252260000000001,3.9311101,-1.4825039,1.2256083,-0.748401
23090,13:46:25.808000,2.6502673999999997,1.1108619,5.0515485,-1.4825039,1.2256083,-0.748401
23091,13:46:25.819000,2.789125,2.8729186,7.141596300000001,-0.6211846,1.2353823,-0.6812059
23092,13:46:25.828000,2.449163,4.4530234,8.9228058,-0.6211846,1.2353823,-0.6812059
23093,13:46:25.837000,2.6359026,4.7355275,9.846927599999999,-0.3914994,1.2194998,-0.47106850000000006
23094,13:46:25.856000,2.9662883,3.3062503,9.2747393,-0.3914994,1.2194998,-0.47106850000000006
23095,13:46:25.868000,3.4882019,2.9016478,8.6714258,-0.4916812,0.9470540999999999,-0.1534188
23096,13:46:25.876000,3.6246655,3.270339,8.0609303,-0.4916812,0.9470540999999999,-0.1534188
23097,13:46:25.886000,3.8688636,3.5648129,7.6156277999999995,-0.37073,0.8700851999999999,0.0090712
23098,13:46:25.896000,3.8401343999999997,3.6486065,7.3522773,-0.37073,0.8700851999999999,0.0090712
23099,13:46:25.905000,3.5169311000000003,3.4882019,7.7281508,-0.4012732,0.8578679,0.059162099999999995
23100,13:46:25.918000,3.6510005,3.2056982999999994,8.0920544,-0.4391468,0.7992249,0.1446832
23101,13:46:25.924000,3.5312957999999997,3.1482398999999996,8.5756617,-0.4391468,0.7992249,0.1446832
23102,13:46:25.936000,3.299068,3.1602101,9.0616636,-0.37439520000000004,0.7833424,0.21065660000000003
23103,13:46:25.943000,3.2296392999999997,3.1937277,9.188550900000001,-0.37439520000000004,0.7833424,0.21065660000000003
23104,13:46:25.953000,3.2033041,3.3613148,8.807889,-0.32674770000000003,0.776012,0.2338694
23105,13:46:25.966000,3.1649985000000003,3.9335042999999996,9.2053099,-0.2827655,0.8028900999999999,0.25586060000000005
23106,13:46:25.972000,2.9710765,3.8233757000000006,9.377684599999998,-0.23756149999999998,0.8261029000000001,0.2644127
23107,13:46:25.986000,2.9854412,3.4882019,9.542878199999999,-0.4269295999999999,0.8786373,0.25219539999999996
23108,13:46:25.992000,3.1099343,3.5600247000000005,10.1844959,-0.4269295999999999,0.8786373,0.25219539999999996
23109,13:46:26.001000,3.4187729,3.6533947,10.510093699999999,-0.4806857,0.8664200000000001,0.2350911
23110,13:46:26.015000,3.6893062999999993,3.4451079,10.2443485,-0.44769899999999996,0.8505375,0.18011329999999998
23111,13:46:26.021000,3.6174831,3.1865456,10.127038,-0.40860359999999996,0.8493158000000002,0.1007009
23112,13:46:26.035000,3.7252178,3.2631563999999997,9.9187508,-0.28520890000000004,0.8761938,-0.008033
23113,13:46:26.041000,3.9071693,3.9981451,9.7104654,-0.28520890000000004,0.8761938,-0.008033
23114,13:46:26.050000,3.7012767999999996,4.6708865,9.5835772,-0.1996879,0.911624,-0.0312459
23115,13:46:26.060000,3.7300057,4.8648086,9.698494,-0.1996879,0.911624,-0.0312459
23116,13:46:26.069000,3.8999867,3.8401343999999997,9.5404844,-0.6260715,1.0435708000000001,-0.026358999999999997
23117,13:46:26.084000,3.6845181000000005,2.61675,9.3561382,-0.8533132,1.1327569,-0.033689300000000005
23118,13:46:26.090000,3.5217192,2.1427186000000003,9.293891,-0.8533132,1.1327569,-0.033689300000000005
23119,13:46:26.099000,3.3230089999999994,2.1427186000000003,9.188550900000001,-0.8288785,1.2488213,-0.06789780000000001
23120,13:46:26.109000,2.9974117000000002,2.0110431,9.0257521,-0.8288785,1.2488213,-0.06789780000000001
23121,13:46:26.119000,2.8250365,1.8458501,8.9419594,-0.772679,1.2854731000000001,-0.0825585
23122,13:46:26.128000,2.52338,2.1403244,8.8366184,-0.7213664000000001,1.2866950000000001,-0.0935541
23123,13:46:26.138000,2.6023853,2.5138037,8.738459599999999,-0.6395105,1.2720341999999998,-0.0886672
23124,13:46:26.148000,2.7556078,3.0093822,8.7719784,-0.5491024999999999,1.2647038000000002,-0.09233229999999999
23125,13:46:26.157000,2.9040418,3.1410575,8.76719,-0.5148941,1.2659256,-0.09477580000000001
23126,13:46:26.167000,2.8705244,2.9136182999999996,8.542143800000002,-0.5283331,1.2854731000000001,-0.10210620000000001
23127,13:46:26.177000,2.9112239,2.6646321,8.5660849,-0.5698719,1.3465598,-0.1363146
23128,13:46:26.186000,2.8010955,2.3438227000000005,8.6019974,-0.5930848000000001,1.422307,-0.1851838
23129,13:46:26.198000,2.619144,2.4180398,8.5756617,-0.5319983,1.5273757,-0.3207957
23130,13:46:26.205000,2.5090156,2.4898627,8.872530000000001,-0.5319983,1.5273757,-0.3207957
23131,13:46:26.216000,2.3150935,2.3174875,9.1215162,-0.45991629999999994,1.5212669,-0.40998199999999996
23132,13:46:26.224000,2.0876541,1.8458501,9.303467800000002,-0.4391468,1.4907238,-0.5113856
23133,13:46:26.235000,1.7476921000000003,1.7836037,9.463872,-0.4367034000000001,1.4406328000000002,-0.6201194999999999
23134,13:46:26.247000,1.3598481000000002,1.6878396,9.765528699999999,-0.3487389,1.2866950000000001,-0.7899399
23135,13:46:26.255000,0.9456690000000001,1.7189629000000002,9.813410800000002,-0.3487389,1.2866950000000001,-0.7899399
23136,13:46:26.267000,0.5434604000000001,1.9511904999999998,9.9786043,-0.2070183,1.0924399,-0.8937868
23137,13:46:26.274000,0.15082820000000002,2.473104,10.074367500000001,-0.2070183,1.0924399,-0.8937868
23138,13:46:26.283000,0.0406997,2.8394009999999996,10.3520832,-0.1068364,0.9800408000000002,-0.9084476
23139,13:46:26.296000,-0.0359115,3.1745751,10.675286300000002,-0.055523800000000005,0.8517593000000001,-0.8986738000000001
23140,13:46:26.303000,-0.1005521,3.3038561,10.9865189,-0.018871900000000004,0.6965996,-0.8656870999999999
23141,13:46:26.314000,-0.3303856,3.2511859,11.1014357,0.0373276,0.40460630000000003,-0.7960484999999999
23142,13:46:26.322000,-0.6081011,3.1817572,11.079889300000001,0.0373276,0.40460630000000003,-0.7960484999999999
23143,13:46:26.333000,-0.7613234,3.1219049,11.0846767,0.1069662,0.13338239999999998,-0.708084
23144,13:46:26.342000,-0.8738461,3.1697867000000004,11.046372400000001,0.1069662,0.13338239999999998,-0.708084
23145,13:46:26.351000,-0.9384867,3.2392156,10.850055699999999,0.1827134,-0.15250239999999998,-0.5517025999999999
23146,13:46:26.362000,-1.0079155999999998,3.3637087,10.794990499999999,0.1827134,-0.15250239999999998,-0.5517025999999999
23147,13:46:26.371000,-0.8810283000000001,3.3038561,10.850055699999999,0.2169219,-0.307662,-0.46373809999999993
23148,13:46:26.381000,-0.6224656999999999,3.3493443,10.8261147,0.3904074,-0.6289768,-0.292696
23149,13:46:26.390000,-0.48839620000000006,3.3924379,10.668104199999998,0.3904074,-0.6289768,-0.292696
23150,13:46:26.400000,-0.6152834,3.3062503,10.4215117,0.609097,-0.8427795,-0.14486670000000001
23151,13:46:26.412000,-0.42136140000000005,2.9231944,10.251530599999999,0.609097,-0.8427795,-0.14486670000000001
23152,13:46:26.419000,-0.3327797,2.7651839,9.9307222,0.726383,-0.9527351000000001,-0.0752281
23153,13:46:26.431000,-0.1651928,2.7364547000000004,9.406414,0.9426290999999999,-1.1445466999999998,0.0518317
23154,13:46:26.438000,0.1915279,2.4587395,9.1023626,0.9426290999999999,-1.1445466999999998,0.0518317
23155,13:46:26.458000,0.6128892,1.7907859,8.1207829,1.0232633,-1.1836419,0.1153617
23156,13:46:26.467000,0.8786343000000001,1.6160166,7.5342288,1.1710924999999999,-1.1311076,0.2644127
23157,13:46:26.476000,1.1276205,1.3526658,7.2110256999999995,1.285935,-1.0883471000000002,0.32427740000000005
23158,13:46:26.487000,1.2808429,1.4268829,7.0745621,1.44476,-1.0235955,0.3755901
23159,13:46:26.497000,1.5274348999999998,1.6638986,6.811211099999999,1.6585625,-0.9588438,0.4366765
23160,13:46:26.506000,1.6662928,1.9248554,6.6196828,1.8931346000000002,-0.9160833,0.4611111
23161,13:46:26.516000,1.9104908,1.9990726000000003,6.3012681,2.1142676,-0.8965356,0.4782153
23162,13:46:26.528000,1.6160166,2.3701577,6.4999781,2.3476179,-0.8354491,0.4647763
23163,13:46:26.534000,1.3119662,2.7699722999999996,6.334785500000001,2.3476179,-0.8354491,0.4647763
23164,13:46:26.546000,1.4268829,2.8513715,6.1049519,2.3329572999999995,-0.7878016999999999,0.4269027
23165,13:46:26.554000,1.4292768999999999,2.7915192,6.040310900000001,2.0434074,-0.6973937,0.3230557
23166,13:46:26.563000,1.1874731,2.983047,5.403481,1.8454871,-0.5959901999999999,0.316947
23167,13:46:26.574000,0.9743982,2.8010955,5.2694116,1.6512322,-0.5202429000000001,0.2986211
23168,13:46:26.582000,0.8163876999999999,3.0237467000000002,5.1832242,1.6512322,-0.5202429000000001,0.2986211
23169,13:46:26.592000,0.6751359,3.1458457,5.1712537,1.277383,-0.4310567,0.25219539999999996
23170,13:46:26.603000,0.48839620000000006,3.0620522,5.281382099999999,1.277383,-0.4310567,0.25219539999999996
23171,13:46:26.612000,0.3615089,2.9950175,5.3771458,1.1161146999999998,-0.411509,0.19843929999999999
23172,13:46:26.623000,0.40220859999999997,2.9471354,5.3867221,0.9866113999999999,-0.4005134,0.1654526
23173,13:46:26.633000,0.5554309000000001,2.956712,5.4896684,0.8925382,-0.4273915,0.12880070000000002
23174,13:46:26.642000,0.6152834,2.9255888,5.7985072,0.8228996999999999,-0.4640433,0.11047470000000001
23175,13:46:26.652000,0.7852644,3.006988,5.9397588,0.726383,-0.47748240000000003,0.11169649999999999
23176,13:46:26.662000,0.9720040999999999,2.8824949,6.2414155,0.6017666,-0.4677085999999999,0.0921488
23177,13:46:26.671000,1.0725563,2.8896773,6.586165400000001,0.48692409999999997,-0.4469391,0.06771419999999999
23178,13:46:26.681000,1.1228323,3.0524758999999997,6.8926105,0.2780083,-0.3003316,0.06038380000000001
23179,13:46:26.693000,1.0318565,3.0045941000000003,7.1200494999999995,0.2780083,-0.3003316,0.06038380000000001
23180,13:46:26.700000,0.9049693000000001,3.0524758999999997,7.3139715,0.21936529999999999,-0.2135888,0.023732
23181,13:46:26.711000,0.6320420999999999,2.9208004,7.6204165999999995,0.14972670000000002,-0.11951569999999999,-0.0153634
23182,13:46:26.719000,0.4381201,2.7316667999999997,7.9101024,0.03854930000000001,-0.0181121,-0.027580700000000003
23183,13:46:26.729000,0.1101285,2.7699722999999996,8.4487743,-0.07384980000000001,0.07473930000000001,-0.0483501
23184,13:46:26.739000,0.18195150000000002,2.8609481,8.788737300000001,-0.11783199999999999,0.1504866,-0.0593456
23185,13:46:26.748000,0.31362690000000004,2.8872831000000003,9.068845699999999,-0.0946192,0.211573,-0.0617891
23186,13:46:26.759000,0.4500906,3.0428995999999997,9.4016256,-0.0946192,0.211573,-0.0617891
23187,13:46:26.768000,0.6488007,3.1961217,9.4255667,-0.0921757,0.2347859,-0.0630108
23188,13:46:26.777000,0.6751359,3.7730997000000004,9.7176466,-0.1031713,0.2628857,-0.07156289999999998
23189,13:46:26.787000,0.4788198,4.6086402,10.103097,-0.0848453,0.3044245,-0.0727847
23190,13:46:26.797000,0.4548787,5.1856179000000004,10.536429400000001,0.012893,0.3899455,-0.09477580000000001
23191,13:46:26.809000,0.725412,5.738654599999999,10.8165379,-0.0897322,0.405828,-0.10210620000000001
23192,13:46:26.815000,0.82357,6.437731299999999,11.3001461,-0.0897322,0.405828,-0.10210620000000001
23193,13:46:26.829000,0.5985246999999999,7.505499400000001,11.273811300000002,-0.23389629999999997,0.42171049999999993,-0.1314277
23194,13:46:26.835000,0.3447502,7.421706200000001,11.419851300000001,-0.42204259999999993,0.46935790000000005,-0.1986228
23195,13:46:26.845000,0.1053403,6.4808254000000005,11.1421356,-0.9241735000000001,0.5243357,-0.38921259999999996
23196,13:46:26.856000,-0.0694289,4.515270200000001,10.660922099999999,-0.9241735000000001,0.5243357,-0.38921259999999996
23197,13:46:26.864000,-0.6583770999999999,2.1522946,10.1174612,-1.2931358,0.5402182,-0.468625
23198,13:46:26.876000,-1.4077301000000002,-0.059852499999999996,10.1342201,-1.1636323999999998,0.528001,-0.4490773
23199,13:46:26.884000,-1.7716331000000003,-1.6758691000000003,10.0097265,-1.1636323999999998,0.528001,-0.4490773
23200,13:46:26.894000,-2.0972304,-2.7556078,10.186889599999999,-0.8679739,0.4424799,-0.40509509999999993
23201,13:46:26.903000,-2.0780778000000004,-1.8099386999999998,10.2156191,-0.4440338,0.301981,-0.3403434
23202,13:46:26.913000,-1.7668449000000002,1.1778966,10.263501199999999,0.5858842,0.0332005,-0.030024099999999998
23203,13:46:26.926000,-1.5202527,4.2255845,10.3927832,0.9548464,-0.0633161,0.0420579
23204,13:46:26.932000,-1.309572,5.8655419,10.483758,0.9548464,-0.0633161,0.0420579
23205,13:46:26.943000,-1.0988913999999999,5.855965599999999,10.2994127,0.6946180999999999,-0.21114539999999998,-0.033689300000000005
23206,13:46:26.952000,-1.019886,4.7618623,10.038456,0.6946180999999999,-0.21114539999999998,-0.033689300000000005
23207,13:46:26.961000,-0.9767923000000001,3.6198773,9.5404844,0.076423,-0.24046689999999998,-0.16319270000000002
23208,13:46:26.979000,-0.8355404000000001,3.0883875,8.8581648,0.076423,-0.24046689999999998,-0.16319270000000002
23209,13:46:26.992000,-0.8977870000000001,3.2200627,8.613966900000001,-0.072628,-0.1109636,-0.1607492
23210,13:46:27,-0.7637175,3.1410575,8.506233199999999,-0.072628,-0.1109636,-0.1607492
23211,13:46:27.010000,-0.8642696,3.2416098,8.702549000000001,-0.1581491,-0.052320500000000006,-0.1460884
23212,13:46:27.020000,-0.8642696,2.9064360000000002,8.7193079,-0.37317340000000004,0.0649655,-0.14242320000000003
23213,13:46:27.028000,-0.8834224,2.7029376,8.8701363,-0.45502929999999997,0.11261289999999999,-0.15586229999999998
23214,13:46:27.041000,-0.9480630999999999,2.640691,8.884499499999999,-0.47824220000000006,0.1504866,-0.1693013
23215,13:46:27.047000,-1.067768,2.4467689999999997,8.7336721,-0.4733553,0.1871384,-0.183962
23216,13:46:27.056000,-1.065374,2.2480588,8.695366900000002,-0.4733553,0.1871384,-0.183962
23217,13:46:27.066000,-0.9983392,1.9200671999999999,8.4224386,-0.461138,0.211573,-0.1900707
23218,13:46:27.076000,-1.0222802,1.6351695,8.233305900000001,-0.4464773,0.2103513,-0.1925142
23219,13:46:27.087000,-1.0510093999999999,1.6112285,8.252458599999999,-0.43425990000000003,0.20424260000000002,-0.188849
23220,13:46:27.095000,-0.9839745999999999,1.8530324,8.2500648,-0.37561690000000003,0.184695,-0.1534188
23221,13:46:27.105000,-1.2018377,2.5161977,8.326675400000001,-0.20335309999999998,0.10894780000000001,-0.0507935
23222,13:46:27.115000,-1.1731083,2.4922566,8.2117586,-0.20335309999999998,0.10894780000000001,-0.0507935
23223,13:46:27.125000,-1.1778966,2.4204338,8.0657187,-0.2717699,0.051526499999999996,-0.0886672
23224,13:46:27.135000,-1.1946553,2.3581872,7.9627724,-0.3927211,-0.0058948,-0.11676689999999999
23225,13:46:27.145000,-0.9696100000000001,2.3821282000000004,8.046566,-0.4244861,-0.0535423,-0.1045496
23226,13:46:27.157000,-0.7589293,2.2839704,8.0393839,-0.3340781,-0.13906329999999997,-0.08744539999999999
23227,13:46:27.165000,-0.6511949,2.0924423,7.9627724,-0.3340781,-0.13906329999999997,-0.08744539999999999
23228,13:46:27.174000,-0.4093909,1.7500861,7.601263499999999,-0.3145305,-0.16105450000000002,-0.0959975
23229,13:46:27.185000,-0.3782676,1.6638986,7.335518400000001,-0.3279695,-0.1732717,-0.1216538
23230,13:46:27.194000,-0.18195150000000002,1.4915235,7.0386505,-0.37195170000000005,-0.145172,-0.1668578
23231,13:46:27.205000,-0.045487900000000005,1.4580061000000002,6.7202349,-0.3878342,-0.0901942,-0.1680796
23232,13:46:27.214000,-0.18195150000000002,1.4843413,6.289297599999999,-0.3878342,-0.0901942,-0.1680796
23233,13:46:27.226000,0.0790053,1.8099386999999998,5.6596494,-0.42937299999999995,0.0588568,-0.1155452
23234,13:46:27.233000,0.35672070000000006,2.4132514,5.046760099999999,-0.42937299999999995,0.0588568,-0.1155452
23235,13:46:27.242000,0.8020231,2.7580017999999997,4.201643499999999,-0.4134906,0.11016949999999999,-0.1131017
23236,13:46:27.256000,1.0773443999999999,3.0955698,3.4355318999999995,-0.6639451,0.2604422,-0.1033279
23237,13:46:27.261000,1.4388534,3.6318479,3.0668404,-0.6639451,0.2604422,-0.1033279
23238,13:46:27.274000,1.6543223000000002,3.9167454,2.9543178,-1.2125016000000002,0.4876839,-0.03857619999999999
23239,13:46:27.281000,2.1020187999999997,3.2631563999999997,2.8034897,-1.2125016000000002,0.4876839,-0.03857619999999999
23240,13:46:27.291000,2.1786296000000003,1.2928133999999998,2.303123,-1.621781,0.6294045,-0.026358999999999997
23241,13:46:27.301000,2.1618712,0.9480630999999999,2.47071,-1.9931866999999999,0.7808989000000001,0.0176233
23242,13:46:27.311000,1.9799197,1.6998101000000003,3.0021996,-1.9785258999999997,1.0423491,0.0664925
23243,13:46:27.322000,1.6567163,2.0110431,3.6533947,-1.9602001,1.0509012,-0.0605674
23244,13:46:27.330000,1.6615044999999997,1.7859976000000002,4.2806487,-1.9602001,1.0509012,-0.0605674
23245,13:46:27.339000,1.6998101000000003,1.623199,5.168858999999999,-2.0151779999999997,0.9885929,-0.11676689999999999
23246,13:46:27.349000,1.5681346999999999,1.2592959,6.1959276,-2.0322821,0.9348368,-0.098441
23247,13:46:27.359000,1.3071779,0.9743982,7.270877799999999,-1.983413,0.9543845,-0.1289842
23248,13:46:27.371000,0.8379346,0.6344361999999999,8.2285175,-1.8673487000000002,1.1290917,-0.2902525
23249,13:46:27.378000,-0.0263351,0.3112328,9.4758434,-1.8673487000000002,1.1290917,-0.2902525
23250,13:46:27.390000,-1.0174919,0.30165640000000005,11.0511599,-1.8197012,1.4528501,-0.31468709999999994
23251,13:46:27.398000,-1.7237511000000003,0.3926322,12.8036404,-1.8197012,1.4528501,-0.31468709999999994
23252,13:46:27.407000,-2.3749461,-0.2825037,14.2544641,-1.8490226000000003,1.6361096000000002,-0.3525607
23253,13:46:27.418000,-3.7323998999999994,-1.4436415,15.188161800000001,-1.9394307000000002,1.8181471999999999,-0.41853409999999996
23254,13:46:27.426000,-5.6764078,-2.667026,16.3301487,-2.0725992,2.0343933,-0.46984670000000006
23255,13:46:27.438000,-7.6371750999999986,-3.4594727,17.675632500000003,-2.0897033,2.1932182,-0.4857292
23256,13:46:27.456000,-8.623543699999999,-2.4012811000000003,23.5866604,-0.2656613,1.2744777,0.0005191
23257,13:46:27.465000,-7.9124966,-0.5937365,25.4851818,-0.2656613,1.2744777,0.0005191
23258,13:46:27.475000,-8.348222699999999,0.2585627,23.2873974,2.5540903,-0.3882961,0.4708849
23259,13:46:27.487000,-9.0568762,-0.5745836999999999,17.874342000000002,3.6670858999999996,-0.9295223,0.46355459999999993
23260,13:46:27.495000,-10.167736999999999,-1.8195150000000002,12.5115604,3.6670858999999996,-0.9295223,0.46355459999999993
23261,13:46:27.505000,-9.415989900000001,-3.3158267,8.7456427,4.10813,-1.969214,1.0047808
23262,13:46:27.514000,-7.1799021,-3.7611291,6.6364417,4.10813,-1.969214,1.0047808
23263,13:46:27.523000,-4.3141661,-2.6598437,5.9469414,4.174103700000001,-2.6081786,1.3053261999999999
23264,13:46:27.536000,-2.3246701,-0.9528513000000001,5.6524668,4.4392190000000005,-3.2165999,1.6290844999999998
23265,13:46:27.542000,-0.9073634,0.6990768,5.2718053,4.7874117,-3.6197705,1.8380002
23266,13:46:27.557000,0.3926322,2.0541368,4.6230044,5.2626648000000005,-3.9325333,1.9088606
23267,13:46:27.562000,1.3119662,2.9255888,3.6725476,5.2626648000000005,-3.9325333,1.9088606
23268,13:46:27.573000,1.8554264999999999,3.3277972,2.7220902000000002,5.2626648000000005,-3.8690032999999997,1.8624348999999998
23269,13:46:27.582000,2.2648175,3.1458457,1.6519281000000003,5.2626648000000005,-3.8690032999999997,1.8624348999999998
23270,13:46:27.592000,2.9662883,2.7268784,0.5386721999999999,5.015875299999999,-3.7089567000000003,1.8697651999999998
23271,13:46:27.604000,3.5624189,2.1044127999999995,-0.23462170000000002,4.8985891,-3.6197705,1.9222994999999998
23272,13:46:27.611000,3.8281641000000004,1.6567163,-0.7493529000000001,4.8387246,-3.5085931000000006,1.9821644
23273,13:46:27.619000,4.3452892,1.5705287,-0.8522992,4.8387246,-3.5085931000000006,1.9821644
23274,13:46:27.629000,4.558363900000001,1.7836037,-1.2521136,4.8130684,-3.1310787,1.9675035
23275,13:46:27.638000,4.7067981,2.2121472,-1.431671,4.8130684,-3.1310787,1.9675035
23276,13:46:27.648000,4.802562200000001,2.6885729,-1.5130703,4.7874117,-2.8635201,1.8832042000000002
23277,13:46:27.658000,5.2765937,3.2200627,-1.7333275000000001,4.7470946,-2.5776353,1.7573661
23278,13:46:27.669000,6.2031102,3.9981451,-1.6710808000000001,4.6725693,-2.2770897999999997,1.6083151000000002
23279,13:46:27.678000,8.156694400000001,5.2023764,-1.4651883999999997,4.6640172,-2.0303006000000003,1.4739248999999999
23280,13:46:27.688000,10.0767622,7.3235478,-1.0581916999999998,4.6530218,-1.8116109,1.3774083000000001
23281,13:46:27.701000,11.9106407,9.9786043,-0.48839620000000006,4.6310306,-1.567265,1.3468649
23282,13:46:27.707000,14.2664337,13.1747246,-0.1532223,4.5943785,-1.3656796999999998,1.3151
23283,13:46:27.718000,16.449852,18.1065674,-0.2609568,4.5711656,-1.1054513000000001,1.0866367000000001
23284,13:46:27.726000,16.7227802,23.1724815,-0.6535890000000001,4.5711656,-1.1054513000000001,1.0866367000000001
23285,13:46:27.737000,14.4292326,24.9752388,-1.3502717,4.6456914000000005,-1.0309258,0.5747319000000001
23286,13:46:27.746000,9.8373518,23.3257046,-1.5465877000000001,4.6456914000000005,-1.0309258,0.5747319000000001
23287,13:46:27.756000,6.4904013,17.876735699999998,-2.3246701,4.3659153,-1.116447,0.7176743
23288,13:46:27.768000,6.0977697,11.953735400000001,-3.5887538999999995,1.7037666,-1.6369035,1.8221177
23289,13:46:27.775000,4.927054900000001,7.7257565999999995,-3.4211669000000002,1.7037666,-1.6369035,1.8221177
23290,13:46:27.787000,4.3117719,4.759468599999999,-2.4611335,0.5382366999999999,-1.9313405,1.9467342
23291,13:46:27.795000,3.9837801,2.8753126,-1.8530324,0.5382366999999999,-1.9313405,1.9467342
23292,13:46:27.804000,3.2942801,1.503494,-1.8578206000000002,0.6555227,-1.9460012999999998,1.7976831000000002
23293,13:46:27.814000,2.1690536,0.6104951999999999,-2.1906002,0.8082389,-1.9044623,1.5643328
23294,13:46:27.823000,2.0948365,0.6320420999999999,-2.5497153,1.1246668,-1.8555932000000002,1.4201688000000001
23295,13:46:27.843000,2.9016478,1.5441937,-2.7436373,2.5907421000000004,-2.1671343,1.5313461000000002
23296,13:46:27.844000,4.4219003,2.8298247,-2.7627900000000003,2.5907421000000004,-2.1671343,1.5313461000000002
23297,13:46:27.852000,7.981925,4.625399099999999,-3.5528426,2.9853606,-2.2917507,1.7219359
23298,13:46:27.861000,26.1986217,0.18195150000000002,-19.930872,3.3421056000000005,-2.4310278999999997,2.0322552
23299,13:46:27.870000,27.376520199999998,14.0413895,-64.2815552,5.868642299999999,-2.6998083999999998,3.8648492999999995
23300,13:46:27.881000,-8.896471,6.3635144,-14.2664337,13.473908400000001,-3.3167818,5.7487559
23301,13:46:27.890000,9.0137815,10.8165379,-1.163532,13.473908400000001,-3.3167818,5.7487559
23302,13:46:27.902000,22.9953175,25.894571300000003,3.5145371,13.0609636,-3.5269190999999998,0.8532861999999999
23303,13:46:27.909000,9.7798929,-12.3679142,4.0627856,6.833808900000001,-3.1200832999999997,3.5252084999999997
23304,13:46:27.922000,5.199982599999999,-0.4716375,-0.8522992,4.8863721,-1.8128326000000001,0.8374037
23305,13:46:27.929000,6.4209727999999995,7.6228104000000005,-2.9854412,4.8863721,-1.8128326000000001,0.8374037
23306,13:46:27.938000,7.3929772,5.7338667,-4.2591014000000005,5.8881903,-1.1983027,-0.3537824
23307,13:46:27.949000,7.608446099999999,2.0349839,-6.8734574,0.6701834,1.5860186,-0.8290351999999999
23308,13:46:27.957000,7.646751400000001,3.7635233,-9.6386423,0.6701834,1.5860186,-0.8290351999999999
23309,13:46:27.967000,7.8215202999999995,5.9253945,-14.290374800000002,-4.8862419,4.7722893,-2.4246137
23310,13:46:27.977000,11.9561291,2.0876541,-19.8518658,-4.8862419,4.7722893,-2.4246137
23311,13:46:28.002000,15.3198376,-4.486540799999999,-25.995124800000003,-9.1476345,4.5621519,-1.7636581999999998
23312,13:46:28.002000,16.890365600000003,-9.5452719,-26.160318399999998,-9.1476345,4.5621519,-1.7636581999999998
23313,13:46:28.017000,14.836230300000002,4.0125093000000005,-14.2520704,-5.1757917,4.4375352999999995,-1.3287225
23314,13:46:28.031000,16.6629276,6.2629623,-10.0097265,-4.9693192999999996,3.7826881,-2.0055606
23315,13:46:28.042000,18.3316135,6.0642519,-7.5964756,-4.9693192999999996,3.7826881,-2.0055606
23316,13:46:28.044000,18.017988199999998,5.2909579,-4.730739099999999,-6.138514499999999,3.2671182,-2.080086
23317,13:46:28.055000,16.6557446,4.295013,-0.6559831,-8.2618799,2.8663909,-2.5455651
23318,13:46:28.064000,14.4292326,4.3668360999999996,5.1281595,-8.2618799,2.8663909,-2.5455651
23319,13:46:28.075000,12.4349489,5.08746,10.7447147,-8.1006117,2.7161182999999998,-2.8864276
23320,13:46:28.085000,9.0449047,4.941420099999999,14.920023,-7.376126299999999,2.7601006,-3.3641237999999998
23321,13:46:28.096000,4.8504438,0.9743982,15.8656921,-6.3376565000000005,2.8688345,-3.7477467000000004
23322,13:46:28.104000,1.091709,-2.9184062,14.328681,-5.348055400000001,3.0472071,-3.8393763999999995
23323,13:46:28.114000,-3.3972260999999997,-6.2653565,11.103830300000002,-4.5392709,3.3428655,-3.6121349
23324,13:46:28.123000,-7.1056852,-5.4657273,6.6316533,-3.6425214,3.5224597,-3.2676072
23325,13:46:28.133000,-8.8533773,0.007182300000000001,3.6126949999999995,-2.4574439999999997,3.5297902000000003,-2.708055
23326,13:46:28.143000,-7.9938955,4.699616000000001,2.5975973999999997,-0.9950336999999999,3.1669364,-1.8809443
23327,13:46:28.153000,-4.5535760000000005,7.1392026,2.8513715,0.374525,1.5469233999999998,-0.6689885999999999
23328,13:46:28.166000,0.3710853,8.0130482,4.6948276,0.2108132,0.9494976,-0.3305696
23329,13:46:28.172000,3.0261407000000005,7.3235478,6.0714345000000005,-0.0017676999999999999,0.6599478,-0.3000264
23330,13:46:28.187000,4.0460272,5.9996114,6.8471227,-0.19602270000000002,0.613522,-0.45762939999999996
23331,13:46:28.191000,3.6055129,6.0618582000000005,6.3491502,-0.19602270000000002,0.613522,-0.45762939999999996
23332,13:46:28.206000,1.9511904999999998,7.108078999999999,5.209559,-0.45625109999999997,0.8590897,-0.5089421
23333,13:46:28.210000,1.3933655,8.7983131,4.603851799999999,-0.5112289000000001,1.0252447,-0.6054586999999999
23334,13:46:28.219000,0.49557840000000003,10.256319,5.5926147,-0.5906413,1.151083,-0.6469975
23335,13:46:28.232000,0.2250453,9.3250151,7.3857946,-0.9767078000000001,1.1950653,-0.5688068000000001
23336,13:46:28.239000,-0.038305599999999995,6.854304300000001,8.6019974,-1.3737698999999999,1.2121693999999998,-0.5126073
23337,13:46:28.249000,0.3184151,5.5375504,9.7296171,-1.3627744,1.2427127,-0.46618149999999997
23338,13:46:28.258000,1.2497194999999999,5.391510500000001,10.1892843,-0.9767078000000001,1.2268302,-0.37943879999999996
23339,13:46:28.269000,2.3940987999999996,5.451363099999999,9.7391939,-0.5332201,1.1132091999999998,-0.36477800000000005
23340,13:46:28.281000,3.5719953,5.855965599999999,8.8126774,-0.5332201,1.1132091999999998,-0.36477800000000005
23341,13:46:28.287000,3.9430807,6.6364417,7.7688502999999995,0.0336624,0.8676417,-0.4246427
23342,13:46:28.301000,4.0771503,6.2749329000000005,6.6508064,0.148505,0.7589078,-0.5162725
23343,13:46:28.307000,4.1298203,6.193533400000001,5.5495209999999995,0.148505,0.7589078,-0.5162725
23344,13:46:28.317000,4.1800966,6.9237337,4.917479,0.3305427,0.514562,-0.6457758000000001
23345,13:46:28.330000,4.3620481,7.957984,4.534422900000001,0.3733032,0.45836229999999994,-0.6922015
23346,13:46:28.336000,4.642157599999999,9.6625834,4.2830424,0.3733032,0.45836229999999994,-0.6922015
23347,13:46:28.346000,4.9031138,10.0576086,4.2734666,0.387964,0.4681362,-0.7337403
23348,13:46:28.355000,4.5918813,9.128699300000001,4.613428599999999,0.2767866,0.5316662,-0.8730174999999999
23349,13:46:28.366000,4.6589160000000005,8.700155300000002,5.4824858,-0.18258370000000002,0.7796772,-1.1283588
23350,13:46:28.376000,4.687645400000001,8.6546669,6.282115,-0.18258370000000002,0.7796772,-1.1283588
23351,13:46:28.386000,3.8975928,8.0441723,6.564619099999999,-0.28643070000000004,0.9922581,-1.3568223
23352,13:46:28.399000,3.0093822,7.708998200000001,6.739388000000001,-0.2583309,1.100992,-1.4374563999999999
23353,13:46:28.404000,2.5664737,7.5485935,6.9883742,-0.15937079999999998,1.1400874,-1.4606693000000002
23354,13:46:28.416000,2.2217238,7.967560300000001,7.0530152,-0.034754400000000005,1.1400874,-1.443565
23355,13:46:28.423000,1.9823137999999998,8.403286900000001,6.971615299999999,-0.034754400000000005,1.1400874,-1.443565
23356,13:46:28.433000,1.9918901000000002,8.5469332,6.8183932,0.058097,1.1229832,-1.4447868000000001
23357,13:46:28.446000,1.8195150000000002,8.0681133,6.5789833,0.032440699999999996,1.0716705,-1.4521171999999998
23358,13:46:28.452000,1.9703432,8.0609303,6.253386,0.032440699999999996,1.0716705,-1.4521171999999998
23359,13:46:28.462000,2.1187775,8.0681133,6.0139761,-0.0530804,1.0118058,-1.4802170000000001
23360,13:46:28.472000,2.1858122000000004,7.6204165999999995,5.5064268,-0.1214972,1.0008101,-1.5278645
23361,13:46:28.486000,2.0517426,7.3762178,4.8911432999999995,-0.20335309999999998,1.0032537000000001,-1.5889508999999997
23362,13:46:28.492000,1.8793674999999999,7.2948189,4.5990634,-0.20335309999999998,1.0032537000000001,-1.5889508999999997
23363,13:46:28.505000,1.5896816,7.062591599999999,4.476964499999999,-0.28643070000000004,0.9995885,-1.6353766
23364,13:46:28.517000,1.2233844999999999,6.734600099999999,4.6469455,-0.5381069,0.9947016,-1.7025717
23365,13:46:28.520000,0.6847122,6.7776933,4.7858032999999995,-0.5381069,0.9947016,-1.7025717
23366,13:46:28.531000,0.557825,6.938097999999999,5.0754895,-0.7164794,1.0142493000000001,-1.7318932
23367,13:46:28.539000,0.2753213,6.7441759,5.116189,-0.7897831999999999,1.0301318000000002,-1.7428887999999998
23368,13:46:28.549000,-0.0263351,6.557436500000001,5.3005347,-0.8618653000000001,1.0606749,-1.7551061000000001
23369,13:46:28.560000,-0.33756790000000003,6.3563317999999995,5.4322099999999995,-0.9046258,1.0667837,-1.7807624
23370,13:46:28.569000,-0.6320420999999999,6.1384692,5.5160035999999995,-0.9046258,1.0667837,-1.7807624
23371,13:46:28.581000,-0.9720040999999999,6.1504392999999995,5.4729095,-0.9143995999999999,1.0386839,-1.7880927
23372,13:46:28.588000,-1.2928133999999998,6.3084502,5.4824858,-0.8960736999999999,1.0142493000000001,-1.7661016
23373,13:46:28.598000,-1.5370114,6.5789833,5.499245200000001,-0.8972955,0.9775974000000001,-1.7306715
23374,13:46:28.607000,-1.6758691000000003,6.5502539,5.6117672999999995,-0.8972955,0.9775974000000001,-1.7306715
23375,13:46:28.617000,-1.8434560000000002,6.4066081,5.848783,-0.9253953000000001,0.9385020000000001,-1.6732502
23376,13:46:28.627000,-2.1283537999999997,6.217474500000001,6.0091882000000005,-0.9742644,0.8994066999999999,-1.5950594999999999
23377,13:46:28.637000,-2.303123,6.193533400000001,6.1863508000000005,-0.9779296000000001,0.8432072,-1.5229774999999999
23378,13:46:28.647000,-2.2193296,6.466460700000001,6.1671987,-0.940056,0.7796772,-1.4496738
23379,13:46:28.657000,-2.039772,7.0290742,6.3611207,-0.876526,0.7088169,-1.3653743
23380,13:46:28.666000,-1.9871020000000001,7.3714299,6.564619099999999,-0.8215482,0.6440653000000001,-1.2847402
23381,13:46:28.681000,-1.9320377,7.5533814,6.562224400000001,-0.8814129999999999,0.6086351,-1.2248755
23382,13:46:28.685000,-1.9272496,7.560564,6.653200599999999,-0.8814129999999999,0.6086351,-1.2248755
23383,13:46:28.697000,-2.3198817000000003,7.388188400000001,6.684323299999999,-1.0548985,0.6196305999999999,-1.2163233999999998
23384,13:46:28.704000,-2.61675,6.9261274,6.5430722,-1.1184285,0.6110786,-1.1833367
23385,13:46:28.716000,-3.0452936,6.2749329000000005,6.511948599999999,-1.1514151000000001,0.5780919,-1.0953722
23386,13:46:28.726000,-3.6174831,5.6979551,6.322814900000001,-1.1514151000000001,0.5780919,-1.0953722
23387,13:46:28.733000,-4.0915146,5.48488,6.0977697,-1.1404196000000002,0.5121185,-0.9512082000000001
23388,13:46:28.745000,-4.5679407,5.6213441,6.2270508,-0.8814129999999999,0.22379029999999997,-0.4808423
23389,13:46:28.753000,-4.529635,5.9852471,6.3012681,-0.8814129999999999,0.22379029999999997,-0.4808423
23390,13:46:28.763000,-4.352471400000001,6.423367,6.535889599999999,-0.5173376000000001,-0.3724136,0.11780510000000001
23391,13:46:28.773000,-3.636636,6.701082700000001,7.0290742,-0.5173376000000001,-0.3724136,0.11780510000000001
23392,13:46:28.781000,-2.9758646,6.9285220999999995,7.1032910000000005,-0.3780604,-0.7169414000000001,0.41468540000000004
23393,13:46:28.793000,-2.4946511,7.1176553,7.4935288,-0.2497788,-1.2178503999999999,0.9681287000000001
23394,13:46:28.801000,-2.0445604,7.0242853,7.464799900000001,-0.2497788,-1.2178503999999999,0.9681287000000001
23395,13:46:28.811000,-1.6423517,6.88064,7.572534599999999,-0.16670120000000002,-1.4218793,1.1831533
23396,13:46:28.821000,-1.2401432,6.4497018,7.270877799999999,-0.1752533,-1.4450922,1.2271355
23397,13:46:28.830000,-1.1371969,5.8870888,6.971615299999999,-0.18380539999999998,-1.4512007,1.256457
23398,13:46:28.845000,-1.0581916999999998,5.4633335999999995,6.823181599999999,-0.15937079999999998,-1.4512007,1.2540135000000001
23399,13:46:28.850000,-0.9935510000000001,4.7139807000000005,6.7872701,-0.15937079999999998,-1.4512007,1.2540135000000001
23400,13:46:28.861000,-0.8211759,4.4290824,6.691505900000001,-0.0237588,-1.3876708,1.1941488
23401,13:46:28.869000,-0.9384867,4.1800966,6.775299499999999,-0.0237588,-1.3876708,1.1941488
23402,13:46:28.879000,-0.49797250000000004,3.8951987999999997,7.0434384,0.0654274,-1.327806,1.1623838
23403,13:46:28.893000,-0.3782676,3.1602101,6.861486900000001,0.11429660000000001,-1.2545023000000002,1.1330624
23404,13:46:28.898000,-0.5434604000000001,3.1985159,6.8447285,0.11429660000000001,-1.1457684,1.139171
23405,13:46:28.913000,-0.4692433,3.3900437000000005,6.7800875,0.2999994,-0.9441831,1.1501665
23406,13:46:28.918000,-0.27053309999999997,3.2559742999999997,6.528707499999999,0.2999994,-0.9441831,1.1501665
23407,13:46:28.928000,-0.6368303000000001,3.3469501000000004,6.1863508000000005,0.39895949999999997,-0.7487063,1.0475413
23408,13:46:28.937000,-0.6272539,3.5839657999999996,6.1791692000000005,0.39895949999999997,-0.7487063,1.0475413
23409,13:46:28.947000,-0.5314899000000001,3.9071693,6.3419676,0.5907710999999999,-0.5776642,0.8447341
23410,13:46:28.959000,-0.8906046999999999,3.7347938999999997,5.9636998,0.5687799,-0.528795,0.7262264
23411,13:46:28.966000,-0.6918946,3.8353462,6.1959276,0.5687799,-0.528795,0.7262264
23412,13:46:28.978000,-1.3263308,3.6917002,6.2055039,0.5199108,-0.4310567,0.5845057
23413,13:46:28.986000,-1.0629798000000001,3.7036707000000004,6.5909538,0.45882429999999996,-0.339427,0.4562242
23414,13:46:28.995000,-1.3790008999999999,3.3924379,5.5590972999999995,0.12040519999999999,-0.11585050000000001,0.11780510000000001
23415,13:46:29.010000,-2.0661073,2.7675784,5.7602015,-0.1300493,0.008765899999999998,0.0005191
23416,13:46:29.014000,-2.3079112,1.7093865000000001,6.0211587,-0.1300493,0.008765899999999998,0.0005191
23417,13:46:29.027000,-2.8394009999999996,0.9025753000000001,5.891877200000001,-0.5136724,0.243338,-0.2633744
23418,13:46:29.035000,-3.0668404,0.3830558,5.9325767,-0.6089673000000001,0.3300808,-0.2890308
23419,13:46:29.044000,-3.5528426,-0.2465922,5.7697778,-0.655393,0.29831579999999996,-0.3452303
23420,13:46:29.058000,-3.8185875,-0.23462170000000002,6.4473081,-0.655393,0.29831579999999996,-0.3452303
23421,13:46:29.063000,-3.6677592000000003,0.2561686,7.4815583,-0.5210028,0.2408945,-0.2658179
23422,13:46:29.077000,-3.5073547,0.895393,8.491867999999998,-0.5210028,0.2408945,-0.2658179
23423,13:46:29.082000,-3.2200627,1.5992579,8.999417300000001,-0.47824220000000006,0.2079078,-0.2364964
23424,13:46:29.093000,-3.7204294,1.5944698,9.9211454,-0.6602799,0.1810298,-0.2914743
23425,13:46:29.102000,-4.0244799,1.8027563999999998,10.3927832,-0.6602799,0.1810298,-0.2914743
23426,13:46:29.111000,-4.3333187,1.9128848000000003,11.307328199999999,-0.8081092,0.22012510000000002,-0.3049133
23427,13:46:29.125000,-4.419506500000001,2.2384822,12.2146921,-0.8582001,0.1736994,-0.3464521
23428,13:46:29.131000,-5.1281595,1.7405096999999998,12.2625742,-0.9437211999999999,0.1040608,-0.40387340000000005
23429,13:46:29.143000,-5.5112157,1.6375635,12.8132162,-0.9290603000000001,0.1052825,-0.3953212
23430,13:46:29.150000,-5.5614915,1.6782633000000002,13.1196613,-0.9290603000000001,0.1052825,-0.3953212
23431,13:46:29.161000,-5.654861,2.2073591,13.5817223,-0.6566147,0.051526499999999996,-0.3036915
23432,13:46:29.173000,-5.4250278,2.6550555,13.885772699999999,-0.5185592000000001,-0.036438099999999994,-0.2548223
23433,13:46:29.179000,-4.9294496,2.8154602000000004,13.8761959,-0.5185592000000001,-0.036438099999999994,-0.2548223
23434,13:46:29.191000,-4.852837999999999,3.0644464,13.857044199999999,-0.23389629999999997,-0.17693689999999998,-0.1656361
23435,13:46:29.199000,-4.5727286,3.4211669000000002,13.821131699999999,-0.23389629999999997,-0.17693689999999998,-0.1656361
23436,13:46:29.207000,-4.455418099999999,3.4020143,13.6966391,-0.08240189999999999,-0.20503670000000002,-0.1693013
23437,13:46:29.217000,-4.555970200000001,2.9351648999999997,13.6319981,0.011671299999999999,-0.2025933,-0.1900707
23438,13:46:29.227000,-4.5272403,2.5185918999999997,13.5410233,0.0532101,-0.20137149999999998,-0.23771810000000002
23439,13:46:29.238000,-4.5463934,2.2025707000000003,13.4596233,0.103301,-0.2099236,-0.24749200000000002
23440,13:46:29.246000,-4.5104818,2.039772,13.454834900000002,0.103301,-0.2099236,-0.24749200000000002
23441,13:46:29.255000,-4.4626002,1.9152790000000002,13.294429800000001,0.2230305,-0.2477973,-0.3073567
23442,13:46:29.265000,-4.2998012999999995,1.6782633000000002,13.2010603,0.2230305,-0.2477973,-0.3073567
23443,13:46:29.275000,-3.8568931000000006,1.4747648000000002,13.1268435,0.24868679999999999,-0.2832274,-0.3818822
23444,13:46:29.284000,-3.3661027000000003,1.2712663,12.676753,0.2572389,-0.3088837,-0.468625
23445,13:46:29.294000,-2.7747604999999997,0.9289103000000001,12.336791,0.2376913,-0.3235445,-0.5529243
23446,13:46:29.308000,-2.8585539,0.799629,11.3288746,0.1558354,-0.1549458,-0.6995319000000001
23447,13:46:29.315000,-2.6143558,0.9360925999999999,10.6106462,0.1558354,-0.1549458,-0.6995319000000001
23448,13:46:29.324000,-2.640691,0.8522992,9.6123056,-0.0029894,0.0832914,-0.8717958
23449,13:46:29.334000,-2.4204338,0.9767923000000001,8.7504311,-0.0029894,0.0832914,-0.8717958
23450,13:46:29.343000,-2.4922566,0.9983392,8.1638765,-0.1789185,0.2323424,-1.006186
23451,13:46:29.358000,-2.3486105999999998,0.6775299,7.0530152,-0.8032222,0.5463269000000001,-1.2639709
23452,13:46:29.363000,-2.133142,0.1604046,6.1743803,-1.1905105,0.6428435,-1.3995829
23453,13:46:29.374000,-2.1283537999999997,-0.7804762,5.2311058,-1.5655814,0.7601295,-1.5193123
23454,13:46:29.383000,-2.106807,-1.7405096999999998,4.4841470999999995,-1.8099273,0.8542027,-1.5107602
23455,13:46:29.392000,-2.6047795,-2.5042272,3.4882019,-1.8099273,0.8542027,-1.5107602
23456,13:46:29.408000,-2.5712618999999997,-2.8489776,3.1721807,-1.7182976000000003,0.8639764999999999,-1.3116183000000001
23457,13:46:29.411000,-2.5904147999999996,-2.5161977,2.9016478,-1.4825039,0.7503557,-1.1625673
23458,13:46:29.422000,-2.6335083999999997,-1.9033084999999998,2.7987015,-1.4825039,0.7503557,-1.1625673
23459,13:46:29.431000,-2.4946511,-0.9959450000000001,2.9399533,-1.2027278000000001,0.6196305999999999,-0.9731993
23460,13:46:29.441000,-2.2839704,0.0406997,3.0931754000000002,-0.6639451,0.3056462,-0.5846893
23461,13:46:29.450000,-1.8745793999999998,0.9001811,3.3397677000000003,-0.6639451,0.3056462,-0.5846893
23462,13:46:29.460000,-1.2904191999999999,1.601652,3.4546845,-0.32674770000000003,0.0466395,-0.3171305
23463,13:46:29.473000,-0.6104951999999999,2.1546887999999997,3.5097487000000003,-0.28398720000000005,0.0197615,-0.2426051
23464,13:46:29.479000,-0.28729190000000004,2.6095676,3.7683115,-0.31086529999999996,0.1040608,-0.143645
23465,13:46:29.490000,-0.45248469999999996,3.3828616,4.0915146,-0.3536258,0.198134,-0.030024099999999998
23466,13:46:29.499000,-0.6320420999999999,3.9478687999999993,4.426688700000001,-0.3536258,0.198134,-0.030024099999999998
23467,13:46:29.508000,-0.8929988000000001,4.4961176,4.8121386,-0.4721335,0.2995375,0.0970357
23468,13:46:29.521000,-1.3406953000000001,4.7355275,5.312504799999999,-0.551546,0.3300808,0.1043661
23469,13:46:29.529000,-1.7189629000000002,4.7618623,5.9086356,-0.6321800999999999,0.3667327,0.0713794
23470,13:46:29.541000,-2.0852599,4.534422900000001,6.7561464,-0.7311403000000001,0.392389,-0.004367800000000001
23471,13:46:29.547000,-2.303123,4.0939087999999995,7.6850572,-0.8801912000000001,0.4876839,-0.10821480000000001
23472,13:46:29.557000,-2.7149078999999996,3.1961217,8.7145185,-1.0878853000000002,0.6123003,-0.18274029999999997
23473,13:46:29.572000,-3.0189586,2.1762357000000003,10.060003300000002,-1.2687012,0.7222559000000001,-0.2083966
23474,13:46:29.576000,-3.4379258000000004,1.2952073999999998,11.0391893,-1.2687012,0.7222559000000001,-0.2083966
23475,13:46:29.588000,-3.7036707000000004,0.3447502,11.6041965,-1.3187921,0.8370985000000001,-0.0605674
23476,13:46:29.595000,-4.2112193,-0.581766,12.868281399999999,-1.3187921,0.8370985000000001,-0.0605674
23477,13:46:29.605000,-4.5918813,-1.3574538999999999,13.8354969,-1.1966192,0.9165109,0.0701577
23478,13:46:29.618000,-5.034789599999999,-1.0007333,14.5202093,-0.3878342,0.911624,0.4647763
23479,13:46:29.625000,-5.1353421,1.2640841,15.9925804,-0.3878342,0.911624,0.4647763
23480,13:46:29.637000,-5.6237378,5.1090064,16.9478264,1.1588752,0.6672781,0.836182
23481,13:46:29.644000,-5.4082689,7.7903975999999995,15.702894199999998,1.1588752,0.6672781,0.836182
23482,13:46:29.654000,-5.1760416,8.9036531,14.1587,1.7526357,0.5035664000000001,0.8056388000000001
23483,13:46:29.664000,-7.0290742,8.307522800000001,12.3487606,2.2352187999999997,0.3496284,0.6859093
23484,13:46:29.674000,-7.7520914,5.0084542999999995,9.9953623,2.563864,0.1724777,0.6517009
23485,13:46:29.685000,-7.922072900000001,1.7022042000000002,8.307522800000001,2.6335027,-0.1170722,0.70057
23486,13:46:29.693000,-7.517469900000001,-0.7038651,7.302001,2.5259905,-0.5849946,0.7262264
23487,13:46:29.705000,-6.0331292,-1.9607668999999999,6.626865400000001,2.9413786,-1.5623782,1.1501665
23488,13:46:29.712000,-4.3955655,-1.9775256,5.5279741,3.4984870000000003,-1.9411142,1.2686743
23489,13:46:29.722000,-3.2080922000000003,-0.5219135,4.4458413,4.087360899999999,-2.176908,1.3798517
23490,13:46:29.735000,-2.645479,1.8434560000000002,3.7180352,4.618812999999999,-2.3418415,1.5924326000000002
23491,13:46:29.741000,-1.6303812,3.7156413,2.9471354,4.618812999999999,-2.3418415,1.5924326000000002
23492,13:46:29.751000,-0.6559831,5.2765937,2.1642652,5.0378666,-2.6765953999999996,1.8563261000000002
23493,13:46:29.760000,-0.009576399999999999,6.2126861,1.4412475,5.0378666,-2.6765953999999996,1.8563261000000002
23494,13:46:29.769000,0.8331464,7.0099211,0.5051548,4.9767799,-2.7389037999999997,1.9271865000000001
23495,13:46:29.780000,1.575317,7.766456599999999,-0.038305599999999995,4.8301725,-2.7034736,1.9699471000000002
23496,13:46:29.789000,1.9631610000000002,8.4487743,-0.0790053,4.6896734,-2.6228395,1.9980468999999996
23497,13:46:29.802000,2.475498,8.8533773,0.2465922,4.3879066,-2.2746465,2.1312153
23498,13:46:29.809000,2.8920712,8.6666374,0.7134414000000001,4.3879066,-2.2746465,2.1312153
23499,13:46:29.819000,2.7149078999999996,7.8646145,1.1994434999999999,3.634099,-1.8201630000000002,2.1214414
23500,13:46:29.829000,2.4060693,6.686717999999999,1.1994434999999999,3.634099,-1.8201630000000002,2.1214414
23501,13:46:29.838000,1.9128848000000003,5.8679361,1.1659261,3.1698418,-1.5758171,2.0908983
23502,13:46:29.850000,1.2808429,5.5854325,1.2880251,2.7556756,-1.2190721000000002,2.0872331
23503,13:46:29.857000,0.36390300000000003,5.5279741,1.5465877000000001,2.7556756,-1.2190721000000002,2.0872331
23504,13:46:29.868000,-0.2777155,5.6979551,1.9918901000000002,2.8106534,-1.1237773000000002,2.1935234
23505,13:46:29.876000,-0.28729190000000004,5.7985072,2.8944654,2.8106534,-1.1237773000000002,2.1935234
23506,13:46:29.886000,0.5937365,5.913424,3.4762315999999998,2.8008794999999997,-1.1469901000000002,2.2338405
23507,13:46:29.901000,2.2145412,6.4066081,3.7707055,2.6506069,-1.1909723,2.4134347000000003
23508,13:46:29.905000,3.7707055,7.5988693,4.1609435,2.6506069,-1.1909723,2.4134347000000003
23509,13:46:29.922000,5.8679361,9.207703599999999,4.1992487999999994,3.1270814,-1.3876708,2.8899093
23510,13:46:29.925000,8.580450099999998,12.2266617,3.8999867,3.1270814,-1.3876708,2.8899093
23511,13:46:29.936000,11.769389199999999,19.373048800000003,-0.5769778,4.7898555,-2.1329257,2.9119002999999997
23512,13:46:29.945000,14.972694400000002,28.446682,-2.3725517000000003,4.7898555,-2.1329257,2.9119002999999997
23513,13:46:29.955000,13.220212900000002,31.6092854,-2.7651839,7.5827289,-2.3821588,2.258275
23514,13:46:29.969000,7.0099211,29.7011909,-1.0869209,6.7568398,-1.4927393999999998,2.3999957999999997
23515,13:46:29.975000,3.6773357000000004,23.6393318,-0.1149167,4.4245582,-1.2276242,2.9522176
23516,13:46:29.985000,3.7395822999999995,16.7539024,-1.7022042000000002,4.4245582,-1.2276242,2.9522176
23517,13:46:29.994000,3.3134327000000003,11.0224314,-2.7580017999999997,1.5864805,-1.684551,2.8776919999999997
23518,13:46:30.003000,3.6342421000000003,6.0020055999999995,-3.4355318999999995,-0.43425990000000003,-1.8580368000000003,2.5417162999999996
23519,13:46:30.035000,3.7659172999999995,2.1953886000000002,-3.8018289,-0.3890559,-0.3711919,1.5936542999999999
23520,13:46:30.036000,2.5473211,0.241804,-5.1137948,-0.3890559,-0.3711919,1.5936542999999999
23521,13:46:30.037000,0.8690578999999999,-1.1348027,-7.0242853,-0.3890559,-0.3711919,1.5936542999999999
23522,13:46:30.041000,-0.023941,-1.9823137999999998,-8.467927,-0.24000500000000002,-0.2465755,1.5985413
23523,13:46:30.051000,1.1156501,-1.8362738,-9.650611900000001,0.1546136,-0.42494799999999994,1.7927963
23524,13:46:30.061000,4.950995900000001,0.007182300000000001,-9.715252900000001,0.6445272,-0.5898815,2.0860114
23525,13:46:30.070000,8.8797121,3.3469501000000004,-8.9682941,0.6445272,-0.5898815,2.0860114
23526,13:46:30.082000,11.3264809,6.289297599999999,-9.3633204,1.1038975,-0.5116907999999999,2.3816697999999996
23527,13:46:30.090000,13.9097137,8.6810017,-10.031273800000001,1.2346225,-0.013225200000000001,2.3621221
23528,13:46:30.099000,16.7203865,10.8045683,-10.948213599999999,0.9462943000000001,0.14071270000000002,2.2094058999999997
23529,13:46:30.109000,19.3227692,11.699960699999998,-11.848395300000002,0.9462943000000001,0.14071270000000002,2.2094058999999997
23530,13:46:30.118000,21.1470737,10.8380852,-11.9178238,-0.1557056,0.5842005,1.5386765
23531,13:46:30.133000,21.8269978,9.1741858,-11.7167187,-1.0060294,0.898185,0.9644636999999999
23532,13:46:30.138000,21.4870358,6.1791692000000005,-11.307328199999999,-2.1312423,1.2720341999999998,0.36337270000000005
23533,13:46:30.150000,20.3785686,3.2799153,-10.572339999999999,-3.2075857999999995,1.6153402000000001,-0.14486670000000001
23534,13:46:30.158000,18.762552300000003,1.2545078,-8.9443531,-3.2075857999999995,1.6153402000000001,-0.14486670000000001
23535,13:46:30.169000,17.436222100000002,0.0885817,-6.6771417,-3.9638364,1.8303645,-0.5822459
23536,13:46:30.181000,16.203260399999998,-0.9313045,-4.3572593,-4.4073237999999995,1.9476504000000001,-0.9951904
23537,13:46:30.186000,14.9224167,-1.9272496,-2.4635274,-4.6333437,2.0747104,-1.5608511
23538,13:46:30.199000,13.900136900000001,-1.5537702,-0.8403287,-4.5050621,2.1272447,-1.7343366000000002
23539,13:46:30.205000,12.837157199999998,-0.6871063000000001,0.5769778,-4.5050621,2.1272447,-1.7343366000000002
23540,13:46:30.215000,11.266629199999999,0.10773440000000001,1.6782633000000002,-4.268046900000001,2.1993267999999997,-1.9469177
23541,13:46:30.226000,9.178975099999999,0.5123371,2.3581872,-3.9870492999999994,2.3227215,-2.4062879
23542,13:46:30.235000,6.6555943,0.411785,2.9662883,-3.9870492999999994,2.3227215,-2.4062879
23543,13:46:30.249000,3.6414242,-0.169981,3.8521049,-4.0114837,2.2824044,-2.6628511
23544,13:46:30.255000,0.3495384,-0.9145458000000001,4.7618623,-3.9613926,2.1480141,-2.6506338
23545,13:46:30.265000,-2.9447415,-0.7685057,6.854304300000001,-3.717047,1.9500939999999998,-2.5260173999999997
23546,13:46:30.278000,-5.6117672999999995,0.7397765000000001,8.810282699999998,-3.717047,1.9500939999999998,-2.5260173999999997
23547,13:46:30.284000,-6.854304300000001,3.8401343999999997,11.2331114,-2.4012444,1.5786883999999999,-1.8284098000000002
23548,13:46:30.299000,-7.6299925,7.335518400000001,12.7892761,-1.6559894,1.4626241000000002,-1.4020263000000002
23549,13:46:30.303000,-6.545465900000001,10.9793367,13.564964300000002,-1.0231335,1.3013556,-0.9780861999999999
23550,13:46:30.316000,-4.1896729,13.550599100000001,13.8019791,-0.42204259999999993,1.1205397,-0.6384454
23551,13:46:30.322000,-1.1467732,13.6559391,12.6695709,-0.1263841,0.9470540999999999,-0.3379
23552,13:46:30.331000,0.7637175,10.071972800000001,11.4605513,-0.1691447,0.8823025,-0.2963611
23553,13:46:30.341000,1.7189629000000002,5.331657900000001,10.4143295,-0.1691447,0.8823025,-0.2963611
23554,13:46:30.351000,1.5441937,1.7524803,8.781554199999999,-0.2888741,0.8163291,-0.43441660000000004
23555,13:46:30.366000,1.5705287,1.1036795,7.5414109,-0.14104489999999997,0.7674599,-0.30857840000000003
23556,13:46:30.371000,2.039772,4.0891209,6.3515439,0.3073298,0.730808,-0.030024099999999998
23557,13:46:30.381000,2.6095676,8.168664900000001,5.2191353,0.3073298,0.730808,-0.030024099999999998
23558,13:46:30.392000,3.0955698,10.9218779,4.0005388,0.6946180999999999,0.6672781,0.16423089999999999
23559,13:46:30.399000,2.8298247,11.994435300000001,2.7723663,0.2547955,0.536553,0.08726189999999999
23560,13:46:30.412000,2.7939133999999997,10.6824694,2.8992536,-0.47091179999999994,0.5182270999999999,0.0396144
23561,13:46:30.419000,3.4115907999999995,8.5134153,3.9358983,-1.1440848,0.47057970000000005,0.09092710000000001
23562,13:46:30.429000,4.4841470999999995,6.653200599999999,6.0546755999999995,-1.4629562,0.46569279999999996,0.1825568
23563,13:46:30.439000,4.9126905999999995,6.775299499999999,7.7592740000000004,-1.3004662,0.536553,0.2424215
23564,13:46:30.449000,5.0084542999999995,7.6802687999999995,8.348222699999999,-0.8777478000000001,0.6660564,0.2424215
23565,13:46:30.462000,4.9031138,8.5469332,8.3697691,-0.4208209,0.7967814000000001,0.15934389999999998
23566,13:46:30.467000,4.8552327,8.6929731,7.895737599999999,-0.1080582,0.911624,0.0322841
23567,13:46:30.479000,5.0491543,8.503838499999999,7.2948189,0.0361059,0.9812626,-0.0825585
23568,13:46:30.487000,5.2215295,8.175847099999999,6.904581100000001,0.0984141,1.0252447,-0.19984449999999998
23569,13:46:30.498000,5.5590972999999995,8.0585365,6.6244712,0.0984141,1.0252447,-0.19984449999999998
23570,13:46:30.506000,5.8104777,8.300340700000001,6.2246566,0.148505,1.0484575999999999,-0.31957399999999997
23571,13:46:30.516000,6.045099700000001,8.427228,5.7458372,0.1704961,1.0667837,-0.4600729
23572,13:46:30.529000,5.913424,8.1136007,5.2119532,-0.0494152,1.1584134,-0.8424742000000001
23573,13:46:30.535000,5.5710678,8.101630199999999,4.8265028,-0.28032199999999996,1.2121693999999998,-0.9927469000000001
23574,13:46:30.546000,4.974937000000001,7.9699545,4.7427095999999995,-0.4977899,1.2500432,-1.1259153999999998
23575,13:46:30.556000,4.3644419,7.6252046,4.828897,-0.7103708000000001,1.2744777,-1.2456448999999998
23576,13:46:30.564000,3.8473167,7.4671940999999995,5.044365900000001,-0.7103708000000001,1.2744777,-1.2456448999999998
23577,13:46:30.576000,3.4068023999999997,7.5270467000000005,5.5112157,-1.0048076,1.2915819,-1.4130218
23578,13:46:30.583000,3.0309291000000003,7.203843099999999,5.7889309,-1.0048076,1.2915819,-1.4130218
23579,13:46:30.594000,2.8681302000000004,6.8303633,6.112133999999999,-1.1098763999999999,1.3037992,-1.4789952
23580,13:46:30.603000,2.7508194,6.684323299999999,6.3204203,-1.2186103000000001,1.3282337,-1.5657379999999999
23581,13:46:30.613000,2.4419807999999996,6.2605680999999995,6.2246566,-1.2393796000000001,1.3465598,-1.6133853999999999
23582,13:46:30.627000,2.0038607,5.8032956,6.095375499999999,-1.2442666,1.3709943000000002,-1.6537025
23583,13:46:30.633000,1.6519281000000003,5.8032956,6.143257599999999,-1.2442666,1.3709943000000002,-1.6537025
23584,13:46:30.645000,1.3550598999999999,5.8511777,6.191139700000001,-1.1709628,1.3453378999999999,-1.6744720000000002
23585,13:46:30.652000,1.1036795,5.7697778,6.2414155,-1.14775,1.3037992,-1.6622546999999999
23586,13:46:30.663000,0.6176775,5.6285262000000005,6.092981299999999,-1.14775,1.3037992,-1.6622546999999999
23587,13:46:30.670000,0.605707,5.5758562000000005,6.004399299999999,-1.134311,1.2524865,-1.6414852
23588,13:46:30.681000,0.6871063000000001,5.6955609,6.1552280999999995,-1.1257589,1.1840696000000002,-1.6060551
23589,13:46:30.691000,0.895393,5.5710678,6.2653565,-1.1355326000000001,1.1132091999999998,-1.5608511
23590,13:46:30.700000,0.9408808000000001,5.6716199000000005,6.253386,-1.1709628,1.0643401000000001,-1.5486338
23591,13:46:30.710000,0.7589293,5.4322099999999995,6.2725387,-1.2503753,1.0509012,-1.5975028999999998
23592,13:46:30.719000,0.3710853,5.197588400000001,6.3491502,-1.2882489,1.0655620000000001,-1.6280462
23593,13:46:30.729000,-0.1580105,5.0060606,6.423367,-1.2882489,1.0655620000000001,-1.6280462
23594,13:46:30.743000,-0.4740316,4.9940901,6.643623799999999,-1.3151268999999999,1.0667837,-1.6292678999999999
23595,13:46:30.749000,-0.8211759,4.9438138,6.8423338000000005,-1.3151268999999999,1.0667837,-1.6292678999999999
23596,13:46:30.762000,-1.0462211,5.0036664,7.0769558,-1.2711446000000002,1.0081406,-1.5645163
23597,13:46:30.768000,-1.2712663,4.685251200000001,7.3642473,-1.2711446000000002,1.0081406,-1.5645163
23598,13:46:30.779000,-1.5346173,4.388382900000001,7.3115773,-1.238158,0.9666018,-1.5217557
23599,13:46:30.790000,-1.6327753999999999,4.7642565,7.3762178,-1.0610071,0.8432072,-1.3678179
23600,13:46:30.797000,-1.8266973000000002,4.8312917,7.3163662,-0.9339473,0.7466904999999999,-1.2639709
23601,13:46:30.809000,-1.9057026000000001,4.946208,7.270877799999999,-0.849648,0.6599478,-1.1515718000000001
23602,13:46:30.816000,-1.9368258999999999,5.082671599999999,7.2756662,-0.849648,0.6599478,-1.1515718000000001
23603,13:46:30.826000,-1.8793674999999999,5.1233716,7.1607494,-0.7616835,0.4803535,-0.8950085999999999
23604,13:46:30.837000,-1.7165686999999998,5.235894200000001,7.1248379,-0.7616835,0.4803535,-0.8950085999999999
23605,13:46:30.847000,-1.601652,5.08746,7.237360499999999,-0.7739007,0.3313025,-0.6922015
23606,13:46:30.860000,-1.5250409,5.0204248,7.1631436,-0.8081092,0.27510290000000004,-0.6445541
23607,13:46:30.865000,-1.3430893,5.164071099999999,7.1176553,-0.8081092,0.27510290000000004,-0.6445541
23608,13:46:30.876000,-1.091709,5.0515485,7.2158136,-0.8374306999999999,0.1944688,-0.5944632
23609,13:46:30.885000,-1.091709,4.8504438,7.3259419999999995,-0.8948519,0.1895819,-0.5883545
23610,13:46:30.895000,-1.0007333,4.352471400000001,7.395371000000001,-0.8948519,0.1895819,-0.5883545
23611,13:46:30.907000,-1.019886,4.0867267,7.407341499999999,-0.9864816999999999,0.2017992,-0.5883545
23612,13:46:30.913000,-1.019886,3.8305580999999997,7.402553599999999,-1.0610071,0.2225686,-0.5883545
23613,13:46:30.925000,-1.065374,3.7156413,7.4169178,-1.0610071,0.2225686,-0.5883545
23614,13:46:30.933000,-1.0534035,3.5241132000000004,7.2828484,-1.0365726,0.24455970000000002,-0.5981284
23615,13:46:30.942000,-1.1084677,3.4068023999999997,7.165537400000001,-1.0048076,0.270216,-0.6005718000000001
23616,13:46:30.953000,-1.1324087,3.3230089999999994,7.0338621,-0.9742644,0.2995375,-0.6115674
23617,13:46:30.963000,-1.1324087,3.3613148,6.971615299999999,-0.9058475,0.34718499999999997,-0.6384454
23618,13:46:30.974000,-1.1012853,3.2679447999999995,6.713053200000001,-0.9058475,0.34718499999999997,-0.6384454
23619,13:46:30.982000,-1.333513,3.1410575,6.5981359,-0.9021823,0.38383690000000004,-0.6482193
23620,13:46:30.992000,-1.5609524,2.8298247,6.545465900000001,-0.9742644,0.4608058,-0.6482193
23621,13:46:31,-1.8937321,2.4659216,6.5670128,-0.9742644,0.4608058,-0.6482193
23622,13:46:31.011000,-2.1906002,2.1044127999999995,6.5909538,-1.0158032,0.491349,-0.6360019
23623,13:46:31.023000,-2.5209861,1.7476921000000003,6.6627769,-1.0524551000000002,0.514562,-0.5736938
23624,13:46:31.030000,-2.7508194,1.3670303999999998,6.725023299999999,-1.043903,0.5011229,-0.5187159
23625,13:46:31.043000,-3.1554222000000003,1.2162021,6.7609348,-1.0219119,0.4815753,-0.45762939999999996
23626,13:46:31.050000,-3.4858077000000005,0.9384867,6.8878222000000004,-1.0219119,0.4815753,-0.45762939999999996
23627,13:46:31.058000,-3.7659172999999995,0.629648,6.8471227,-1.0011424,0.45469719999999997,-0.40509509999999993
23628,13:46:31.069000,-4.0244799,0.3279915,6.823181599999999,-0.9986989,0.4265974,-0.3537824
23629,13:46:31.078000,-4.1298203,0.0622466,6.8902159,-0.9974773000000001,0.3765065,-0.2181705
23630,13:46:31.091000,-4.3117719,-0.1723751,7.026680000000001,-0.9840382,0.3789499,-0.1338711
23631,13:46:31.098000,-4.534422900000001,-0.2465922,7.110473599999999,-0.9840382,0.3789499,-0.1338711
23632,13:46:31.107000,-4.6397634000000005,-0.2825037,7.165537400000001,-0.9730426,0.3972759,-0.0495718
23633,13:46:31.117000,-4.6660986,-0.48600200000000005,7.400158900000001,-0.9363908000000001,0.4094932,0.082375
23634,13:46:31.127000,-4.7067981,-0.5602191,7.4384651,-0.9278386999999999,0.41682359999999996,0.14346140000000002
23635,13:46:31.140000,-4.8384733,-0.6176775,7.618022,-0.8997389000000001,0.4241539000000001,0.20088270000000003
23636,13:46:31.146000,-4.9198732000000005,-0.8762401,7.8334908,-0.8997389000000001,0.4241539000000001,0.20088270000000003
23637,13:46:31.160000,-4.9366317,-1.1036795,7.9316492,-0.8166611999999999,0.419267,0.25097359999999996
23638,13:46:31.165000,-5.214346900000001,-1.4173065,8.022625,-0.8166611999999999,0.419267,0.25097359999999996
23639,13:46:31.176000,-5.331657900000001,-1.6375635,8.168664900000001,-0.6712755,0.3850586,0.26074749999999997
23640,13:46:31.185000,-5.384327900000001,-1.7596626,8.2141533,-0.6712755,0.3850586,0.26074749999999997
23641,13:46:31.194000,-5.4968505,-1.5465877000000001,8.221335400000001,-0.4990116,0.3325242,0.2411998
23642,13:46:31.205000,-5.5495209999999995,-1.4364593,8.4152575,-0.4990116,0.3325242,0.2411998
23643,13:46:31.214000,-5.5016389000000006,-1.4268829,8.7145185,-0.45502929999999997,0.31542,0.21432179999999998
23644,13:46:31.225000,-5.6213441,-1.4699767,8.9323816,-0.44769899999999996,0.3044245,0.1703395
23645,13:46:31.235000,-5.9086356,-1.7381157999999999,9.3058624,-0.45502929999999997,0.29587240000000004,0.11780510000000001
23646,13:46:31.243000,-6.1336808,-2.3366406000000004,9.597942399999999,-0.4538076,0.2812116,-0.021472
23647,13:46:31.255000,-6.4712491,-3.0333229999999998,9.9546633,-0.4538076,0.2812116,-0.021472
23648,13:46:31.262000,-6.6148949,-3.6581831,10.273078,-0.4122688,0.2457815,-0.0813368
23649,13:46:31.275000,-6.861486900000001,-4.0316625,10.692045199999999,-0.2900959,0.1370475,-0.1766317
23650,13:46:31.281000,-7.0841379,-3.8640754,10.8859673,-0.2900959,0.1370475,-0.1766317
23651,13:46:31.291000,-7.407341499999999,-3.7180352,11.0296125,-0.18258370000000002,0.0881784,-0.1851838
23652,13:46:31.305000,-7.646751400000001,-3.4834137000000003,11.1325588,-0.000546,-0.014446899999999999,-0.2572658
23653,13:46:31.312000,-7.852644000000001,-3.3996203,11.5227966,-0.000546,-0.014446899999999999,-0.2572658
23654,13:46:31.324000,-8.0561428,-3.6797296999999998,11.5634966,0.061762199999999996,-0.0669813,-0.3183523
23655,13:46:31.330000,-8.2668228,-3.7778878,11.659260699999999,0.0788664,-0.11951569999999999,-0.3745518
23656,13:46:31.340000,-8.187817599999999,-4.0077214,11.668836599999999,0.17904820000000002,-0.1732717,-0.4197558
23657,13:46:31.349000,-8.3458281,-4.034056700000001,11.489279699999999,0.17904820000000002,-0.1732717,-0.4197558
23658,13:46:31.360000,-8.408075300000002,-3.7754939,11.453368199999998,0.27434309999999995,-0.17693689999999998,-0.4063168
23659,13:46:31.374000,-8.4703207,-3.2440037999999998,11.2067757,0.4673764,-0.11951569999999999,-0.2438268
23660,13:46:31.379000,-8.398497599999999,-3.1554222000000003,11.137347199999999,0.4673764,-0.11951569999999999,-0.2438268
23661,13:46:31.390000,-8.285976400000001,-3.1123283,10.9051199,0.5309063,-0.09874630000000001,-0.0226938
23662,13:46:31.398000,-7.895737599999999,-2.52338,11.027218800000002,0.5309063,-0.09874630000000001,-0.0226938
23663,13:46:31.419000,-7.5845050999999994,-2.789125,10.5555811,0.7361568000000001,-0.0889724,0.1740047
23664,13:46:31.428000,-7.483952499999999,-2.789125,10.361659,0.7361568000000001,-0.0889724,0.1740047
23665,13:46:31.437000,-7.388188400000001,-2.7005434,10.2611074,0.8070172,-0.1329547,0.2790734
23666,13:46:31.446000,-7.187084700000001,-2.7196963,10.2132254,0.8497777,-0.18548900000000001,0.31816880000000003
23667,13:46:31.456000,-6.713053200000001,-2.7173021,9.9474802,0.8497777,-0.18548900000000001,0.31816880000000003
23668,13:46:31.470000,-6.2964797,-2.4611335,9.576395,0.9572898999999999,-0.2844491,0.41468540000000004
23669,13:46:31.477000,-5.8870888,-1.8458501,9.104758300000002,0.9572898999999999,-0.2844491,0.41468540000000004
23670,13:46:31.486000,-5.6165557,-1.1778966,8.5660849,1.0098243,-0.2966664,0.48921090000000006
23671,13:46:31.496000,-5.2598348,-0.557825,8.1806355,1.0428109,-0.307662,0.5759536999999999
23672,13:46:31.505000,-4.9246612,-0.1268872,7.850249799999999,1.0403675,-0.366305,0.718896
23673,13:46:31.515000,-4.6277928,-0.0215469,7.5485935,1.0403675,-0.366305,0.718896
23674,13:46:31.525000,-4.4458413,-0.07661119999999999,7.199055199999999,0.9646201999999999,-0.4286132,0.7848694
23675,13:46:31.539000,-4.2471309,-0.05745840000000001,6.8064227,0.9365205,-0.4493826,0.8031953000000001
23676,13:46:31.543000,-4.0196919,-0.028729200000000003,6.3443613,0.9365205,-0.4493826,0.8031953000000001
23677,13:46:31.553000,-3.7012767999999996,-0.0311233,5.8799067,0.8729906,-0.4725955,0.8031953000000001
23678,13:46:31.563000,-3.2655509,0.13885770000000003,5.3986925999999995,0.8729906,-0.4725955,0.8031953000000001
23679,13:46:31.572000,-2.8274305,0.3040505,4.9893022,0.8290083,-0.47748240000000003,0.7995300999999999
23680,13:46:31.585000,-2.5161977,0.5530368,4.6972213,0.6970615,-0.4872562,0.7824259
23681,13:46:31.592000,-2.1163833,0.7086533,4.577516999999999,0.6970615,-0.4872562,0.7824259
23682,13:46:31.604000,-1.9224613000000002,0.7804762,4.5416055,0.5211325,-0.4896997,0.7482175
23683,13:46:31.612000,-1.7812095000000001,0.7780821,4.5918813,0.5211325,-0.4896997,0.7482175
23684,13:46:31.621000,-1.6615044999999997,0.7637175,4.634975,0.43683310000000003,-0.4884779,0.7311133000000001
23685,13:46:31.635000,-1.4747648000000002,0.7732939,4.6445513,0.3623077,-0.4884779,0.7164524999999999
23686,13:46:31.641000,-1.3383013000000001,0.9911568999999999,4.6230044,0.3061081,-0.4884779,0.7091221
23687,13:46:31.653000,-1.1826848,1.3813950000000002,4.634975,0.2547955,-0.4457174,0.7115656
23688,13:46:31.660000,-1.1515615,1.7644508,4.613428599999999,0.2547955,-0.4457174,0.7115656
23689,13:46:31.670000,-1.2832369,1.9823137999999998,4.606246,0.207148,-0.35042249999999997,0.7152308
23690,13:46:31.680000,-1.2999957,2.2001767000000005,4.7403154,0.207148,-0.35042249999999997,0.7152308
23691,13:46:31.689000,-1.2640841,2.5161977,5.0323954,0.1888221,-0.3247662,0.7237829000000001
23692,13:46:31.702000,-1.2976014999999999,2.7843367999999997,5.391510500000001,0.1827134,-0.2587928,0.7469956999999999
23693,13:46:31.709000,-1.3574538999999999,3.0045941000000003,5.8056893,0.19004379999999998,-0.2025933,0.7408871
23694,13:46:31.721000,-1.4340651000000002,3.102752,6.121710299999999,0.19004379999999998,-0.2025933,0.7408871
23695,13:46:31.728000,-1.5824993,3.1961217,6.4808254000000005,0.19004379999999998,-0.0901942,0.6810223000000001
23696,13:46:31.736000,-1.6447458,3.3589206,6.8327579,0.20470460000000001,-0.041325,0.628488
23697,13:46:31.746000,-1.6543223000000002,3.6821237,7.347488900000001,0.20470460000000001,-0.041325,0.628488
23698,13:46:31.756000,-1.8697912,3.9191399,7.811944,0.2108132,0.0209832,0.5625146
23699,13:46:31.767000,-2.0325898999999996,4.1489735,8.3099174,0.14972670000000002,0.1724777,0.42934609999999995
23700,13:46:31.776000,-2.3103054,4.3093777,8.898864699999999,0.14972670000000002,0.1724777,0.42934609999999995
23701,13:46:31.786000,-2.5209861,4.4434476,9.5380888,0.039771100000000004,0.270216,0.27540820000000005
23702,13:46:31.799000,-2.6981492,4.4530234,10.0767622,0.039771100000000004,0.270216,0.27540820000000005
23703,13:46:31.805000,-3.0955698,4.3476834,10.756686199999999,-0.004211199999999999,0.2799899,0.19966099999999998
23704,13:46:31.820000,-3.3924379,3.9071693,11.5371618,-0.004211199999999999,0.1712559,0.0041843
23705,13:46:31.825000,-3.6510005,3.1649985000000003,11.9417648,-0.004211199999999999,0.1712559,0.0041843
23706,13:46:31.836000,-4.1417909,2.0637131,12.0327396,0.2902256,-0.1915977,-0.20717489999999997
23707,13:46:31.844000,-4.5392108,1.0510093999999999,11.3121166,0.2902256,-0.1915977,-0.20717489999999997
23708,13:46:31.853000,-4.6206107,1.1156501,10.191678,0.7447090000000001,-0.5080256,-0.2902525
23709,13:46:31.863000,-4.6086402,2.1475065,9.0856047,1.4056646000000002,-0.9099746,-0.31346540000000006
23710,13:46:31.873000,-4.419506500000001,3.4594727,7.7903975999999995,2.1655803,-1.3583493,-0.24993539999999997
23711,13:46:31.883000,-4.529635,4.388382900000001,6.193533400000001,2.8094318,-1.8067241000000003,-0.11065830000000001
23712,13:46:31.892000,-4.026874100000001,4.8959322,4.9797254,3.2101591,-2.2294424,0.0689359
23713,13:46:31.902000,-2.7340607999999995,5.647678900000001,4.7259512,3.4752742999999997,-2.6558261,0.24730850000000001
23714,13:46:31.913000,-1.2042316000000002,6.3012681,4.9366317,3.6414294000000003,-3.0333405,0.4305679
23715,13:46:31.922000,-0.23462170000000002,6.3419676,5.0323954,3.6731943999999994,-3.2190432999999996,0.6187142
23716,13:46:31.936000,0.48121379999999997,6.289297599999999,4.8097444000000005,3.5131477999999996,-3.0687706,0.8703904
23717,13:46:31.950000,1.3981537,6.930915799999999,4.352471400000001,3.5766777999999997,-2.6020699,0.8984902
23718,13:46:31.961000,1.7548743000000002,7.026680000000001,4.0005388,3.5766777999999997,-2.6020699,0.8984902
23719,13:46:31.970000,1.8482443,6.629259599999999,3.3780732,3.6059992,-2.31252,0.881386
23720,13:46:31.982000,1.8386679,6.023552400000001,2.932771,3.5192566,-1.7370853,0.854508
23721,13:46:31.990000,1.8865498,5.5543089000000005,2.473104,3.5192566,-1.7370853,0.854508
23722,13:46:31.999000,1.7979681,4.9821196,2.183418,3.4813828,-1.4939613,0.8337386
23723,13:46:32.009000,1.673475,5.080277400000001,1.9942843000000001,3.4997089,-1.2997062,0.8410689
23724,13:46:32.019000,1.4627944,5.2885642,1.8602147,3.5510216,-1.1604292,0.8826078000000002
23725,13:46:32.032000,1.0462211,5.6045852,1.8099386999999998,3.5730126,-1.0272607,1.0512065000000002
23726,13:46:32.038000,0.6703475999999999,5.7602015,1.8482443,3.5730126,-1.0272607,1.0512065000000002
23727,13:46:32.049000,0.33756790000000003,5.9038477,1.8889439,3.5302519999999995,-1.1274423999999998,1.3077697
23728,13:46:32.058000,-0.009576399999999999,5.927788700000001,2.0804718,3.5302519999999995,-1.1274423999999998,1.3077697
23729,13:46:32.067000,-0.2250453,6.112133999999999,2.7723663,3.4276267999999996,-1.3754534999999999,1.6889492
23730,13:46:32.077000,-0.0790053,6.9069747999999995,3.636636,3.4276267999999996,-1.3754534999999999,1.6889492
23731,13:46:32.087000,0.557825,8.0441723,4.3931708,3.3457708,-1.4902961000000001,1.9235213
23732,13:46:32.099000,1.8937321,9.8780508,4.8480501,3.2211545,-1.6564511999999998,2.2399492000000003
23733,13:46:32.106000,3.6893062999999993,12.3679142,4.950995900000001,3.2211545,-1.6564511999999998,2.2399492000000003
23734,13:46:32.116000,6.2653565,15.5472775,4.5009055,3.4887133,-1.8091674,2.258275
23735,13:46:32.125000,9.478237199999999,19.1503963,3.5312957999999997,3.4887133,-1.8091674,2.258275
23736,13:46:32.134000,11.992040600000001,22.514104800000002,1.8362738,3.8613408,-1.9472228999999999,2.2301752999999995
23737,13:46:32.145000,12.509165800000002,23.988870600000002,0.7780821,4.2950549,-2.113378,2.2191799
23738,13:46:32.154000,10.4765759,20.720924399999998,-0.3782676,4.444106099999999,-2.2538772000000002,2.3132528999999997
23739,13:46:32.166000,8.3362522,15.0062113,-2.1044127999999995,3.0708818,-2.1744647,2.4781864
23740,13:46:32.174000,6.8327579,10.3472948,-2.7675784,3.0708818,-2.1744647,2.4781864
23741,13:46:32.183000,5.7147136,6.7369938,-2.1379302000000004,2.2291102,-2.2355511000000003,2.4855167999999996
23742,13:46:32.196000,4.9964838,4.0891209,-1.8458501,2.0922766,-2.186682,2.5197252999999997
23743,13:46:32.203000,4.4841470999999995,2.1618712,-2.0373781,2.7507887,-1.8775842,2.1532063
23744,13:46:32.217000,3.7323998999999994,0.8929988000000001,-3.1386635,3.002465,-1.652786,1.9161909
23745,13:46:32.222000,2.9758646,-0.2130748,-4.8336854,3.002465,-1.652786,1.9161909
23746,13:46:32.232000,2.4252219,-0.8762401,-6.684323299999999,3.065995,-1.2251809,1.6376365
23747,13:46:32.242000,2.7532134,-0.5721896,-8.3841343,3.065995,-1.2251809,1.6376365
23748,13:46:32.251000,3.9765980000000005,1.7812095000000001,-9.5141478,3.1283031,-1.1921941999999999,1.6645147
23749,13:46:32.263000,6.0379171,5.384327900000001,-9.787075999999999,3.3091190000000004,-1.5012918,1.9296299
23750,13:46:32.270000,8.9180183,9.1095457,-9.8086233,3.3091190000000004,-1.5012918,1.9296299
23751,13:46:32.280000,10.3089886,11.6520786,-9.008994099999999,3.1796157000000003,-1.6576731,1.9345168000000001
23752,13:46:32.290000,10.297019,12.5546541,-10.866813699999998,2.9047264999999998,-1.6796640999999999,1.7207142
23753,13:46:32.299000,24.4557171,11.874730099999999,-20.5006676,2.6127333999999998,-1.6161341999999999,1.5582242
23754,13:46:32.312000,6.516737,1.0988913999999999,-12.2649679,2.6921456000000004,-1.8311586,1.8709869
23755,13:46:32.319000,6.3874555,-3.9287159,-19.2078533,4.740986299999999,-1.7273116000000002,3.5044391000000004
23756,13:46:32.329000,5.4729095,5.1305537,-9.794258099999999,5.635292099999999,-1.3326931,3.4457962999999996
23757,13:46:32.338000,6.3683023,8.599602699999998,-6.657988499999999,6.4135337,-2.6655998,2.5918074
23758,13:46:32.348000,8.2835817,5.1018243,-4.488935,5.6389575,-1.9496663,1.1184015
23759,13:46:32.358000,7.953196000000001,4.1417909,-4.6565218,5.6389575,-1.9496663,1.1184015
23760,13:46:32.367000,6.2366271,5.4322099999999995,-5.1544943,2.5504251,-0.8476664,0.7799824000000001
23761,13:46:32.379000,6.9692216,5.5806441,-5.381934200000001,1.3726778999999998,-0.307662,0.5674015
23762,13:46:32.387000,6.9955564,5.1712537,-5.7171078,1.3726778999999998,-0.307662,0.5674015
23763,13:46:32.396000,7.2613015,5.4010868,-6.8399401,-0.6688319,1.0276882999999999,-0.3745518
23764,13:46:32.406000,7.9867134,5.3771458,-8.3506165,-0.6688319,1.0276882999999999,-0.3745518
23765,13:46:32.416000,9.0137815,5.764989900000001,-10.9817314,-1.9540913,1.728961,-0.6604366
23766,13:46:32.432000,9.0616636,8.688183800000001,-15.118734400000001,-5.5850710999999995,3.0985196,-1.3714831
23767,13:46:32.435000,15.9063921,3.1697867000000004,-19.408958399999996,-7.549612,3.4344952000000006,-2.0385473000000003
23768,13:46:32.455000,13.390193900000002,-6.696293799999999,-19.5980911,-7.549612,3.4344952000000006,-2.0385473000000003
23769,13:46:32.464000,11.5467377,-5.499245200000001,-15.7004995,-8.2044592,4.1931896,0.12024860000000001
23770,13:46:32.477000,10.2443485,-2.449163,-11.934581800000002,-7.1183414,4.7429676,-0.11921040000000001
23771,13:46:32.484000,11.187623,-0.7230178,-8.9850531,-6.6907363,4.1149987999999995,-1.132024
23772,13:46:32.495000,10.680074699999999,-0.34714429999999996,-5.7314725,-6.357204,3.534677,-1.5144254
23773,13:46:32.503000,9.7296171,1.0821326,-1.1778966,-6.2826786,3.1901493,-1.8247447
23774,13:46:32.514000,8.7408552,3.5552367999999994,4.1848845,-5.8782864,3.241462,-2.4441613999999996
23775,13:46:32.522000,7.100896799999999,6.468854900000001,8.872530000000001,-5.8782864,3.241462,-2.4441613999999996
23776,13:46:32.532000,4.0675735,7.627598299999999,11.053553599999999,-5.3993683,3.3941782,-2.8900926
23777,13:46:32.544000,1.0366447,7.8694024,11.769389199999999,-3.7365947,3.2243578,-3.4081061000000004
23778,13:46:32.552000,-1.2856309,9.068845699999999,10.2299843,-3.7365947,3.2243578,-3.4081061000000004
23779,13:46:32.563000,-2.5688679,8.9132299,8.6426964,-2.1080294,2.474216,-2.7190506
23780,13:46:32.571000,-3.7467644,7.6802687999999995,7.0075269,-2.1080294,2.474216,-2.7190506
23781,13:46:32.580000,-3.3158267,7.1392026,7.270877799999999,-1.8380271000000001,1.9659765,-2.3476448
23782,13:46:32.594000,-1.5824993,7.395371000000001,6.2581739,-1.5057167,1.0545664,-0.8840130999999999
23783,13:46:32.600000,-0.265745,8.7504311,5.7171078,-1.5057167,1.0545664,-0.8840130999999999
23784,13:46:32.611000,1.7764213,10.5962811,5.4920626,-1.1257589,0.7430253000000001,-0.42219929999999994
23785,13:46:32.620000,3.5648129,10.6561337,4.7139807000000005,-0.7189229,0.6196305999999999,-0.11065830000000001
23786,13:46:32.629000,4.3572593,10.445452699999999,3.3924379,-0.4635815,0.7430253000000001,0.034727499999999994
23787,13:46:32.642000,5.1544943,10.1078854,2.837007,-0.4635815,0.7430253000000001,0.034727499999999994
23788,13:46:32.649000,5.9182119,8.587632199999998,2.3845222,-0.5442156,0.9140674000000001,0.031062299999999998
23789,13:46:32.662000,5.6452851,7.7449093,2.1618712,-1.1220937,1.3697723999999998,-0.18274029999999997
23790,13:46:32.668000,5.1808295,7.0913205,2.9112239,-1.1220937,1.3697723999999998,-0.18274029999999997
23791,13:46:32.678000,4.3955655,5.9517293,3.9358983,-1.9675305,1.8523557000000002,-0.4869509
23792,13:46:32.688000,3.8018289,4.950995900000001,5.14013,-1.9675305,1.8523557000000002,-0.4869509
23793,13:46:32.697000,3.1434517000000004,3.7419762999999997,6.4401255,-2.3755879,1.9708633000000002,-0.5529243
23794,13:46:32.709000,2.353399,3.0237467000000002,7.390583,-2.5564041,1.8877857,-0.5089421
23795,13:46:32.716000,1.8673970000000002,4.6972213,8.151906,-2.5564041,1.8877857,-0.5089421
23796,13:46:32.727000,2.305517,6.466460700000001,8.8677416,-1.5936812,1.3648856000000003,-0.3574476
23797,13:46:32.735000,2.4467689999999997,7.3403072,8.5780563,-1.5936812,1.3648856000000003,-0.3574476
23798,13:46:32.745000,2.8609481,7.1799021,7.7257565999999995,-1.142863,1.1144311000000002,-0.39776469999999997
23799,13:46:32.758000,3.3948319,6.868669500000001,6.9764037,-0.8789693999999999,0.9580496999999999,-0.455186
23800,13:46:32.765000,4.4482355,7.2565136,6.547860099999999,-0.7042621,0.8505375,-0.46251640000000005
23801,13:46:32.776000,4.7331328,7.922072900000001,5.9613061,-0.5332201,0.794338,-0.4356383
23802,13:46:32.785000,4.3668360999999996,7.900525999999999,5.3412347,-0.3682866,0.8542027,-0.42586450000000003
23803,13:46:32.797000,3.9047748999999996,7.448041,4.9366317,-0.21679210000000002,1.100992,-0.532155
23804,13:46:32.803000,4.2854371,7.7999735,5.5495209999999995,-0.1581491,1.1352004999999998,-0.6506626999999999
23805,13:46:32.813000,4.6086402,8.649879499999999,6.229445,-0.1605926,1.1926217,-0.7948268
23806,13:46:32.823000,4.1896729,8.4822922,6.516737,-0.2974263,1.3245685,-0.9964122
23807,13:46:32.831000,3.6821237,7.565352000000001,6.8255754,-0.2974263,1.3245685,-0.9964122
23808,13:46:32.842000,2.7364547000000004,7.239754700000001,6.626865400000001,-0.5100071,1.4442979999999999,-1.195554
23809,13:46:32.852000,2.6909671000000004,7.3450952,6.8973985,-0.6517278000000001,1.498054,-1.3482702
23810,13:46:32.862000,3.0045941000000003,7.3786125,7.354671499999999,-0.7128142,1.4296372,-1.4411216
23811,13:46:32.873000,2.8848889,6.9428864,7.6443577000000005,-0.7543529999999999,1.2989123,-1.5034298000000001
23812,13:46:32.881000,2.5616858,6.4880075,7.3043957,-0.7763441999999999,1.1669655,-1.5767336
23813,13:46:32.896000,1.8362738,6.583771700000001,6.8064227,-0.6834928000000001,0.9299499,-1.6573677
23814,13:46:32.899000,1.6375635,6.5334954000000005,6.4616723,-0.6834928000000001,0.9299499,-1.6573677
23815,13:46:32.909000,1.8123327,6.792058,6.346756,-0.6016369,0.8358768,-1.6182724
23816,13:46:32.920000,1.7093865000000001,7.3522773,6.0307345,-0.5368853,0.7674599,-1.5803988000000002
23817,13:46:32.929000,1.7333275000000001,7.278060000000001,5.736260400000001,-0.48312910000000003,0.7540209,-1.5559642
23818,13:46:32.940000,1.551376,6.794452199999999,5.3867221,-0.5857544,0.8199943000000001,-1.5498555
23819,13:46:32.948000,1.0534035,6.5502539,5.1592832,-0.5857544,0.8199943000000001,-1.5498555
23820,13:46:32.958000,0.7828703,6.7729053,5.2382879,-0.7616835,0.8627548,-1.4814386
23821,13:46:32.967000,0.6942885999999999,7.0171037,5.4058752,-0.7616835,0.8627548,-1.4814386
23822,13:46:32.977000,0.36869120000000005,6.713053200000001,5.499245200000001,-0.9363908000000001,0.8163291,-1.4118001
23823,13:46:32.990000,0.1149167,6.3587264999999995,5.6644373,-1.043903,0.7980031,-1.4020263000000002
23824,13:46:32.996000,-0.1532223,5.966094,5.7793546,-1.1257589,0.7637946999999999,-1.3837004
23825,13:46:33.007000,-0.16758689999999998,5.9804587,5.9613061,-1.1257589,0.7637946999999999,-1.3837004
23826,13:46:33.016000,-0.0933698,6.112133999999999,6.2414155,-1.1807367,0.6636129,-1.3042878999999998
23827,13:46:33.026000,-0.23462170000000002,6.1648045,6.334785500000001,-1.1807367,0.6636129,-1.3042878999999998
23828,13:46:33.036000,-0.2537745,6.1097398,6.306056,-1.1795149,0.6306262,-1.2578622
23829,13:46:33.045000,-0.32320340000000003,6.0881929,6.346756,-1.1831801000000002,0.6208524000000001,-1.2199886
23830,13:46:33.060000,-0.4381201,5.7314725,6.428154900000001,-1.2247188999999998,0.6489522,-1.1576803999999998
23831,13:46:33.065000,-0.5267016999999999,5.738654599999999,6.4640665,-1.2247188999999998,0.6489522,-1.1576803999999998
23832,13:46:33.076000,-0.6847122,5.595008900000001,6.593348,-1.2491535,0.7234776999999999,-1.0990374
23833,13:46:33.095000,-0.9193339,5.3939047,6.8471227,-1.2491535,0.7234776999999999,-1.0990374
23834,13:46:33.106000,-0.9743982,5.5662794,6.918945299999999,-1.2222754999999998,0.7870076,-0.960982
23835,13:46:33.114000,-1.0964973,5.5543089000000005,6.8902159,-1.2222754999999998,0.7870076,-0.960982
23836,13:46:33.124000,-1.1874731,5.381934200000001,6.808816900000001,-1.2088364,0.8444288000000001,-0.9231084
23837,13:46:33.133000,-1.3287247,5.1305537,6.782482099999999,-1.2088364,0.8444288000000001,-0.9231084
23838,13:46:33.142000,-1.5178586,4.9031138,6.823181599999999,-1.2173885,0.8774155999999999,-0.9255518
23839,13:46:33.155000,-1.5178586,4.948602200000001,6.909369,-1.2027278000000001,0.9507193000000002,-0.9072259
23840,13:46:33.162000,-1.5968639,4.922267,6.9213395,-1.2027278000000001,0.9507193000000002,-0.9072259
23841,13:46:33.175000,-1.7836037,4.9318433,6.997950599999999,-1.2039496,1.0252447,-0.9047824000000001
23842,13:46:33.181000,-1.9272496,4.675674900000001,7.0961084,-1.2039496,1.0252447,-0.9047824000000001
23843,13:46:33.191000,-2.130748,4.4434476,7.3163662,-1.2234972,1.0692270000000001,-0.9243300999999999
23844,13:46:33.201000,-2.3677638,4.1992487999999994,7.529440400000001,-1.2552621000000002,1.1107658999999999,-0.9463212
23845,13:46:33.210000,-2.640691,3.8904104,7.7377272,-1.2821403,1.1364222,-0.9707558000000001
23846,13:46:33.222000,-2.7819428,3.7563410000000004,7.929255,-1.2601491000000002,1.1254264999999999,-0.9976339
23847,13:46:33.230000,-3.0883875,3.5935422999999993,8.0417776,-1.2601491000000002,1.1254264999999999,-0.9976339
23848,13:46:33.240000,-3.1242987999999996,3.5887538999999995,8.070507000000001,-1.1636323999999998,1.0667837,-0.9976339
23849,13:46:33.249000,-3.1099343,3.5169311000000003,8.130359599999998,-1.1636323999999998,1.0667837,-0.9976339
23850,13:46:33.259000,-3.1578162,3.6605771000000003,8.017836599999999,-1.1098763999999999,1.0203578000000002,-0.9964122
23851,13:46:33.271000,-3.1554222000000003,3.8018289,7.948408099999999,-1.0414596,0.9482759,-1.0000774
23852,13:46:33.278000,-3.3541322,3.7228234,7.8454614000000005,-1.0414596,0.9482759,-1.0000774
23853,13:46:33.290000,-3.5719953,3.4666550000000003,7.6778746,-1.0732244,0.8725286,-1.0416161
23854,13:46:33.298000,-3.7323998999999994,3.1362693,7.6706924,-1.0732244,0.8725286,-1.0416161
23855,13:46:33.307000,-3.7707055,2.8394009999999996,7.524652499999999,-1.0817766000000002,0.762573,-1.0440595
23856,13:46:33.317000,-3.6462126000000006,2.8058836,7.4815583,-1.0817766000000002,0.762573,-1.0440595
23857,13:46:33.326000,-3.7084589,2.8322186,7.2613015,-1.0475682,0.6990430999999999,-1.0257336
23858,13:46:33.338000,-3.8233757000000006,2.592809,7.1822957999999995,-1.0524551000000002,0.6245175999999999,-0.9634254999999999
23859,13:46:33.346000,-3.9167454,2.3366406000000004,7.1535668,-1.0524551000000002,0.6245175999999999,-0.9634254999999999
23860,13:46:33.356000,-3.9071693,2.4563452999999997,7.0721674,-1.0829983,0.5719831999999999,-0.8950085999999999
23861,13:46:33.365000,-4.010115600000001,2.3940987999999996,7.060196899999999,-1.0829983,0.5719831999999999,-0.8950085999999999
23862,13:46:33.375000,-4.1250324,2.2839704,7.0745621,-1.1037678,0.5585441999999999,-0.8498046
23863,13:46:33.387000,-4.4434476,2.0158311999999996,7.07935,-1.1257589,0.5707615,-0.8339221
23864,13:46:33.395000,-4.654128099999999,1.7429038000000001,7.055409,-1.1257589,0.5707615,-0.8339221
23865,13:46:33.404000,-4.8097444000000005,1.6591103999999999,7.1224441999999994,-1.1086546,0.5658746,-0.798492
23866,13:46:33.414000,-4.8336854,1.6255928999999998,7.1942663,-1.1086546,0.5658746,-0.798492
23867,13:46:33.423000,-4.9366317,1.4460356,7.273272,-1.0781114,0.5402182,-0.771614
23868,13:46:33.436000,-4.8672032,1.2162021,7.251725200000001,-1.0585636999999999,0.5133402,-0.7374055
23869,13:46:33.443000,-4.8815675,1.2090199,7.270877799999999,-1.0426812,0.4791318,-0.6824276999999999
23870,13:46:33.455000,-4.917479,1.1850789,7.2110256999999995,-0.940056,0.38383690000000004,-0.5236028
23871,13:46:33.463000,-4.8312917,1.2281727,7.2445431,-0.940056,0.38383690000000004,-0.5236028
23872,13:46:33.472000,-4.781014900000001,1.0294625,7.220602,-0.8105526,0.2531118,-0.3476738
23873,13:46:33.482000,-4.7115865,0.9289103000000001,7.0913205,-0.8105526,0.2531118,-0.3476738
23874,13:46:33.491000,-4.6158223,0.8427228000000001,7.002739,-0.6602799,0.139491,-0.1900707
23875,13:46:33.502000,-4.5894876,0.7852644,6.801634299999999,-0.6602799,0.139491,-0.1900707
23876,13:46:33.511000,-4.5799112,0.5482486,6.643623799999999,-0.5881978,0.08940010000000001,-0.1131017
23877,13:46:33.521000,-4.5320292,0.5171254,6.6148949,-0.46602489999999996,0.007544199999999999,0.028618900000000003
23878,13:46:33.530000,-4.412324,0.4500906,6.5215249,-0.46602489999999996,0.007544199999999999,0.028618900000000003
23879,13:46:33.539000,-4.3859892,0.3615089,6.622077,-0.402495,-0.0254425,0.0750446
23880,13:46:33.552000,-4.457811799999999,0.13406949999999998,6.672352799999999,-0.3352998,-0.0608726,0.12269200000000001
23881,13:46:33.559000,-4.3045893,-0.0023940999999999997,6.792058,-0.3352998,-0.0608726,0.12269200000000001
23882,13:46:33.569000,-4.374018700000001,-0.28968590000000005,6.5430722,-0.3291912,-0.0608726,0.1214703
23883,13:46:33.578000,-4.5535760000000005,-0.3519325,6.5334954000000005,-0.330413,-0.0706465,0.127579
23884,13:46:33.588000,-4.5846992,-0.36869120000000005,6.540678,-0.3035349,-0.048655300000000005,0.11658339999999999
23885,13:46:33.601000,-4.7738328,-0.7685057,6.6891122,-0.28765240000000003,-0.014446899999999999,0.11047470000000001
23886,13:46:33.607000,-5.0683069000000005,-0.9959450000000001,6.940492599999999,-0.2925393,-0.0034514000000000003,0.1385745
23887,13:46:33.619000,-5.2885642,-1.4077301000000002,7.1583557,-0.3010914,0.0368657,0.2179869
23888,13:46:33.627000,-5.595008900000001,-1.7093865000000001,7.2229962,-0.3010914,0.0368657,0.2179869
23889,13:46:33.637000,-5.9230003,-1.7357216,7.3762178,-0.18747060000000002,0.0246484,0.30961669999999997
23890,13:46:33.646000,-6.191139700000001,-1.7476921000000003,7.5078936,-0.18747060000000002,0.0246484,0.30961669999999997
23891,13:46:33.656000,-6.3491502,-1.7812095000000001,7.5773225,-0.09706260000000001,0.0002138,0.3926943
23892,13:46:33.668000,-6.4209727999999995,-1.8290915,7.7688502999999995,-0.0885105,-0.0107817,0.4269027
23893,13:46:33.675000,-6.581377499999999,-1.9392200000000002,7.9388312999999995,-0.0885105,-0.0107817,0.4269027
23894,13:46:33.687000,-6.657988499999999,-1.9966784,7.9986839000000005,-0.0872888,-0.0071166,0.4537807
23895,13:46:33.695000,-6.5885601,-2.1666594,8.1399355,-0.0872888,-0.0071166,0.4537807
23896,13:46:33.705000,-6.4425197,-2.2480588,8.2237291,-0.0445282,-0.0254425,0.41712879999999997
23897,13:46:33.718000,-6.4209727999999995,-2.183418,8.479898500000001,-0.0298675,-0.030329400000000003,0.3694814
23898,13:46:33.724000,-6.2581739,-2.3797342999999995,8.4200449,-0.0298675,-0.030329400000000003,0.3694814
23899,13:46:33.736000,-6.710659,-2.7436373,8.6474848,-0.0750715,-0.0181121,0.23142600000000002
23900,13:46:33.744000,-6.875851600000001,-2.7005434,8.724096300000001,-0.0750715,-0.0181121,0.23142600000000002
23901,13:46:33.753000,-7.1392026,-3.1338751,8.7193079,-0.0750715,0.0136528,0.12635719999999998
23902,13:46:33.763000,-7.4145240999999995,-3.5624189,8.6283321,-0.11416680000000001,0.0136528,0.053053499999999996
23903,13:46:33.772000,-7.7688502999999995,-3.8784398999999996,8.618755300000002,-0.18747060000000002,0.025870099999999997,-0.0019244
23904,13:46:33.784000,-7.874190799999999,-3.9454749,8.7288837,-0.1483752,0.0160963,0.0066277
23905,13:46:33.792000,-7.874190799999999,-3.7515528,8.819860499999999,-0.1483752,0.0160963,0.0066277
