,time,ax,ay,az,wx,wy,wz
52082,10:59:51.004000,6.7705116,-9.901991800000001,1.4508239,-0.8936303,0.4730231,-0.7508445
52083,10:59:51.021000,6.88064,-9.617094999999999,1.3861831,-0.8056656999999999,0.5206706,-0.7251882
52084,10:59:51.034000,6.978797900000001,-9.3154383,0.6583770999999999,-0.5051203,0.613522,-0.6787625
52085,10:59:51.034000,6.3252090999999995,-8.961112,0.6966828,-0.5051203,0.613522,-0.6787625
52086,10:59:51.055000,6.112133999999999,-8.7288837,1.0534035,-0.2913176,0.6868258,-0.6518844
52087,10:59:51.056000,6.428154900000001,-8.441592199999999,0.5243076,-0.2913176,0.6868258,-0.6518844
52088,10:59:51.066000,6.466460700000001,-8.168664900000001,0.0406997,-0.2913176,0.6868258,-0.6518844
52089,10:59:51.072000,6.2916913,-8.0441723,0.3998145,-0.25955259999999997,0.7955597,-0.6237847
52090,10:59:51.082000,6.277327099999999,-7.9843197,0.241804,-0.3096435,0.8737504,-0.6274499
52091,10:59:51.091000,6.4449139,-7.929255,-0.2968683,-0.3096435,0.8737504,-0.6274499
52092,10:59:51.101000,6.593348,-8.063324900000001,-0.3040505,-0.5967498999999999,1.0423491,-0.6506626999999999
52093,10:59:51.110000,6.394638099999999,-8.2763996,-0.5123371,-0.7677921,1.1095443,-0.6653235
52094,10:59:51.121000,6.0690403,-8.400893199999999,-0.7708998,-0.7677921,1.1095443,-0.6653235
52095,10:59:51.131000,6.3611207,-8.491867999999998,-0.8068113,-0.9388341999999998,1.1706306999999998,-0.6653235
52096,10:59:51.140000,6.306056,-8.611573199999999,-1.1324087,-1.0866635,1.2158346000000002,-0.6543279000000001
52097,10:59:51.150000,6.253386,-8.5900259,-1.1898671,-1.2027278000000001,1.236604,-0.6286716
52098,10:59:51.160000,6.2916913,-8.6355143,-1.2305667,-1.296801,1.2402692,-0.5749155
52099,10:59:51.170000,6.385061299999999,-8.6355143,-1.3215424999999998,-1.363996,1.214613,-0.441747
52100,10:59:51.181000,6.4832196,-8.611573199999999,-1.4005477,-1.363996,1.214613,-0.441747
52101,10:59:51.189000,6.6196828,-8.5373564,-1.4364593,-1.3261225,1.1889565,-0.36111279999999996
52102,10:59:51.199000,6.6771417,-8.5277796,-1.3933655,-1.2430449,1.1620786,-0.27559179999999994
52103,10:59:51.208000,6.653200599999999,-8.410469099999998,-1.5130703,-1.1184285,1.1400874,-0.20228800000000002
52104,10:59:51.220000,6.638835899999999,-8.424833300000001,-1.5537702,-0.7848963000000001,1.087553,-0.10577139999999999
52105,10:59:51.230000,6.514342299999999,-8.3170986,-1.5346173,-0.7848963000000001,1.087553,-0.10577139999999999
52106,10:59:51.237000,6.3802729000000005,-8.1806355,-1.5394055,-0.48312910000000003,0.9995885,0.005406
52107,10:59:51.249000,6.4113964999999995,-8.2452765,-1.2736604999999999,-0.42204259999999993,0.9311716999999998,0.0738229
52108,10:59:51.257000,6.4856133,-8.3099174,-1.309572,-0.42204259999999993,0.9311716999999998,0.0738229
52109,10:59:51.267000,6.9213395,-8.5158091,-1.1371969,-0.45869449999999995,0.8505375,0.17522639999999998
52110,10:59:51.276000,7.421706200000001,-8.8270416,-1.067768,-0.7885615,0.6672781,0.49287609999999993
52111,10:59:51.286000,7.7951856,-9.0329351,-1.2832369,-0.7885615,0.6672781,0.49287609999999993
52112,10:59:51.299000,8.0154428,-9.1981268,-1.8290915,-1.4165305000000001,0.658726,0.908264
52113,10:59:51.305000,8.087266,-9.382473,-2.3749461,-1.4165305000000001,0.658726,0.908264
52114,10:59:51.318000,7.9986839000000005,-9.775105499999999,-2.6263263,-2.1385725,0.690491,1.3065479
52115,10:59:51.325000,7.8454614000000005,-10.3496885,-2.4802864,-2.1385725,0.690491,1.3065479
52116,10:59:51.335000,7.7185745,-10.883572599999999,-2.1786296000000003,-3.0133308999999997,0.5438834,1.8111221999999998
52117,10:59:51.347000,7.8789792,-10.902726199999998,-2.7029376,-3.0133308999999997,0.5438834,1.8111221999999998
52118,10:59:51.354000,8.7791595,-10.5172758,-4.0532093,-3.5508919000000003,0.29831579999999996,2.1984105
52119,10:59:51.365000,10.060003300000002,-10.1174612,-5.1616769,-3.4250536,0.051526499999999996,2.2973703999999997
52120,10:59:51.373000,10.586705199999999,-9.7487698,-5.5207915000000005,-3.4250536,0.051526499999999996,2.2973703999999997
52121,10:59:51.383000,9.406414,-10.5962811,-5.178435299999999,-3.0267699,-0.1341764,1.8844258999999999
52122,10:59:51.394000,7.1032910000000005,-11.7813597,-3.8137991,-3.0267699,-0.1341764,1.8844258999999999
52123,10:59:51.402000,4.1322145,-12.7677288,-2.9064360000000002,-2.8508408,0.0784045,1.1061842
52124,10:59:51.414000,1.067768,-14.604002,-2.3222756,-2.4305658,0.0832914,0.9950068999999999
52125,10:59:51.421000,-1.2880251,-15.3772964,-2.1522946,-1.6327764999999999,-0.0596509,0.9498028000000001
52126,10:59:51.430000,-2.039772,-15.236043900000002,-2.9734707,-0.5454373,-0.39073959999999996,0.9363638000000001
52127,10:59:51.441000,-1.3981537,-14.1539116,-3.9406865,-0.5454373,-0.39073959999999996,0.9363638000000001
52128,10:59:51.450000,0.12928130000000002,-11.4006977,-4.5535760000000005,0.7214961,-0.831784,1.0316588
52129,10:59:51.461000,2.4635274,-7.6850572,-4.7618623,1.8931346000000002,-1.7554113999999998,1.2943306
52130,10:59:51.469000,5.4178457,-4.6397634000000005,-3.8497107,1.8931346000000002,-1.7554113999999998,1.2943306
52131,10:59:51.480000,7.646751400000001,-3.0979638,-3.7419762999999997,0.46126769999999995,-1.8287151000000001,1.0915235
52132,10:59:51.489000,7.594080900000001,-1.7740271,-5.331657900000001,0.46126769999999995,-1.8287151000000001,1.0915235
52133,10:59:51.499000,6.160016099999999,-0.9815805000000001,-6.6747475000000005,-3.7488120000000005,-1.1506553,1.0536499
52134,10:59:51.509000,4.7211623,-3.8712578,-7.3259419999999995,-3.7488120000000005,-1.1506553,1.0536499
52135,10:59:51.518000,3.2535803,-8.3554049,-6.9476743,-5.438463700000001,-1.1237773000000002,0.6578095
52136,10:59:51.530000,1.7237511000000003,-10.4574232,-5.5471268,-5.818421400000001,-1.1494336,0.35970759999999996
52137,10:59:51.538000,1.1084677,-9.511754,-4.7451034000000005,-5.2588692,-1.2080765,0.3841422
52138,10:59:51.547000,1.5609524,-7.1559610000000005,-4.3309245,-2.6358162999999997,-1.4157705,0.08726189999999999
52139,10:59:51.559000,2.157083,-3.9670214999999995,-3.9071693,-2.6358162999999997,-1.4157705,0.08726189999999999
52140,10:59:51.570000,3.1410575,-1.5394055,-2.8202484,-0.7372489000000001,-1.4646397,0.0090712
52141,10:59:51.583000,4.1010914,-1.3454834999999998,-2.8944654,-0.9437211999999999,-1.4805222,-0.1033279
52142,10:59:51.588000,4.2231898,-4.1992487999999994,-2.9998057,-1.201506,-1.4340966,-0.2255009
52143,10:59:51.600000,3.3948319,-6.593348,-2.5664737,-1.0988808,-1.3351364,-0.2804787
52144,10:59:51.605000,2.1522946,-6.4090023,-2.2719998,-1.0988808,-1.3351364,-0.2804787
52145,10:59:51.617000,1.7764213,-4.7953801,-2.0541368,-0.45502929999999997,-0.9490700000000001,-0.32690440000000004
52146,10:59:51.624000,2.7627900000000003,-3.952657,-2.0708954,-0.45502929999999997,-0.9490700000000001,-0.32690440000000004
52147,10:59:51.634000,2.8753126,-0.9911568999999999,-4.2327666,-0.8630870999999999,-0.9099746,-0.2694831
52148,10:59:51.647000,3.7611291,-2.7244842,-5.8368125,-1.3737698999999999,-0.8574402,-0.45885119999999996
52149,10:59:51.654000,3.0907815,-5.843995099999999,-6.978797900000001,-1.0646723999999999,-0.9173049999999999,-0.8449177
52150,10:59:51.663000,1.7572685000000001,-5.0754895,-6.4137907,-1.0646723999999999,-0.9173049999999999,-0.8449177
52151,10:59:51.673000,2.3342462000000004,-6.006794,-4.6804628,-0.5955282,-0.8525533000000002,-0.8314787
52152,10:59:51.683000,2.5497153,-7.230177900000001,-5.286169999999999,1.0183764000000002,-0.9368526,-1.3213921999999998
52153,10:59:51.694000,2.353399,-6.6412301,-5.9948235,1.4740813999999998,-0.9612873,-1.155237
52154,10:59:51.703000,2.9495296000000004,-5.8990593,-5.4082689,1.60725,-0.9808349000000001,-1.1210285
52155,10:59:51.715000,3.7443705,-8.048959700000001,-4.5990634,1.7538575,-1.021152,-1.2468666000000002
52156,10:59:51.722000,3.3349794999999998,-9.2412214,-4.139396700000001,1.7367531999999999,-0.9906088,-1.091707
52157,10:59:51.731000,2.6287205,-4.9629664,-4.3668360999999996,1.0367023000000002,-0.8012406999999999,-0.8070440999999999
52158,10:59:51.745000,4.1130619,-3.7252178,-4.3644419,0.0886403,-0.7242717,-0.9450995000000001
52159,10:59:51.751000,5.0419722,-6.7609348,-5.6596494,0.0886403,-0.7242717,-0.9450995000000001
52160,10:59:51.765000,4.687645400000001,-9.447114,-6.052281400000001,-0.9253953000000001,-0.8647706000000001,-0.9658689
52161,10:59:51.770000,3.952657,-11.4030924,-6.2557802,-0.8643086999999999,-0.8342274,-0.9231084
52162,10:59:51.784000,3.2751269,-12.578595199999999,-6.229445,-0.26932649999999997,-0.7560366999999999,-1.0526117
52163,10:59:51.790000,2.3510051,-10.445452699999999,-5.9996114,0.36352940000000006,-0.7218283000000001,-1.0587204
52164,10:59:51.799000,2.1379302000000004,-7.2445431,-6.2222624,0.6689618,-0.7316020999999999,-1.0562768
52165,10:59:51.811000,2.6143558,-6.7800875,-6.6627769,0.6689618,-0.7316020999999999,-1.0562768
52166,10:59:51.819000,2.66942,-7.2756662,-6.734600099999999,0.6506358,-1.0333693000000002,-1.1625673
52167,10:59:51.829000,2.4300102999999997,-7.7329387999999994,-6.514342299999999,0.3366513,-1.178755,-1.0477246999999998
52168,10:59:51.839000,2.1762357000000003,-7.6443577000000005,-6.143257599999999,0.09963580000000001,-1.2129636000000001,-1.0929288000000001
52169,10:59:51.848000,1.79318,-6.0211587,-5.6045852,-0.14715350000000002,-1.2007463,-1.1576803999999998
52170,10:59:51.860000,1.5561641000000002,-3.7252178,-5.901453500000001,-0.5930848000000001,-1.1921941999999999,-1.2016627
52171,10:59:51.867000,2.1499007000000003,-4.0005388,-6.5430722,-1.0658941000000002,-1.2325113,-1.3665961000000002
52172,10:59:51.878000,2.7747604999999997,-6.2557802,-7.251725200000001,-1.14775,-1.3412452,-1.5400817
52173,10:59:51.886000,2.863342,-7.926860799999999,-7.558169400000001,-0.8276568999999999,-1.4182141000000001,-1.5865074
52174,10:59:51.897000,3.1410575,-8.695366900000002,-7.5102877999999995,-0.1349362,-1.4267662,-1.6769154
52175,10:59:51.905000,3.3900437000000005,-7.895737599999999,-7.3043957,-0.1349362,-1.4267662,-1.6769154
52176,10:59:51.915000,3.8832282999999994,-6.5311017,-6.971615299999999,0.704392,-1.4072185,-1.7795406999999999
52177,10:59:51.927000,4.4242945,-5.7123194,-6.930915799999999,1.6121368,-1.409662,-1.8894963
52178,10:59:51.934000,4.7427095999999995,-5.7099257,-7.187084700000001,1.4691945,-1.4035532,-1.8882746
52179,10:59:51.945000,4.9366317,-6.1504392999999995,-7.5461993000000005,1.1063409,-1.3950011999999998,-1.8442923
52180,10:59:51.954000,5.164071099999999,-6.938097999999999,-8.2835817,0.7667001,-1.3864491,-1.8296316000000004
52181,10:59:51.965000,5.3579931,-8.1423302,-9.0712404,0.6579661,-1.4059968,-1.8528445
52182,10:59:51.976000,5.480092,-8.503838499999999,-9.246008900000001,0.7166092,-1.4463138999999998,-1.832075
52183,10:59:51.984000,5.5997968,-8.3242817,-8.989841499999999,0.7166092,-1.4463138999999998,-1.832075
52184,10:59:51.995000,5.7075315,-8.130359599999998,-8.688183800000001,0.835117,-1.526948,-1.8491793
52185,10:59:52.002000,5.6668315,-8.3386459,-8.269216499999999,0.8192345,-1.5965865,-1.8504009
52186,10:59:52.013000,5.480092,-8.4727154,-7.570139900000001,0.8192345,-1.5965865,-1.8504009
52187,10:59:52.026000,5.1664648,-8.4870796,-7.0075269,0.6762921,-1.7969501,-1.7318932
52188,10:59:52.031000,4.9438138,-8.783947900000001,-6.8183932,0.7373786,-1.8922451,-1.7196759
52189,10:59:52.043000,4.6493402,-8.815072099999998,-6.792058,0.9633985999999999,-1.9728792000000002,-1.6805806
52190,10:59:52.051000,4.4219003,-8.815072099999998,-7.1439905,1.2810482,-2.019305,-1.6292678999999999
52191,10:59:52.062000,4.4626002,-9.1909447,-7.819126600000001,1.6548973000000002,-2.0547352,-1.5962813
52192,10:59:52.070000,4.582305,-9.2603741,-8.72649,1.6548973000000002,-2.0547352,-1.5962813
52193,10:59:52.080000,5.0012726999999995,-8.793524699999999,-9.0951815,2.2633185,-2.186682,-1.3103966
52194,10:59:52.094000,5.8200541,-8.3027344,-8.8126774,2.3940437,-2.2685378,-1.1259153999999998
52195,10:59:52.099000,6.535889599999999,-7.3522773,-8.6283321,2.3940437,-2.2685378,-1.1259153999999998
52196,10:59:52.110000,7.1822957999999995,-6.2509917999999995,-7.850249799999999,1.9664384,-2.2428814999999998,-0.6934233
52197,10:59:52.119000,7.464799900000001,-5.1137948,-7.258907300000001,1.9664384,-2.2428814999999998,-0.6934233
52198,10:59:52.129000,7.373824099999999,-4.7139807000000005,-7.505499400000001,1.3677909,-2.1207085,-0.5529243
52199,10:59:52.141000,6.9500684999999995,-4.3452892,-7.0242853,0.5834406999999999,-1.9924269000000001,-0.43319480000000005
52200,10:59:52.148000,6.2629623,-4.2782545,-7.0051331999999995,-0.21190520000000002,-1.9386709,-0.3183523
52201,10:59:52.161000,5.5710678,-4.7546802,-7.4264946,-1.666985,-1.7676287,-0.21084009999999997
52202,10:59:52.167000,4.759468599999999,-5.1904058,-8.022625,-1.666985,-1.7676287,-0.21084009999999997
52203,10:59:52.177000,3.9287159,-5.37954,-8.5253859,-2.2399762,-1.7260900000000001,-0.2511572
52204,10:59:52.188000,3.3684969,-5.772172,-9.5404844,-2.2399762,-1.7260900000000001,-0.2511572
52205,10:59:52.196000,3.0428995999999997,-6.0474935,-10.016908599999999,-2.090925,-1.7627418000000001,-0.36722140000000003
52206,10:59:52.208000,3.0428995999999997,-5.9469414,-10.5699463,-0.7054838999999999,-2.0938303,-0.5565895000000001
52207,10:59:52.216000,3.2631563999999997,-5.0323954,-10.8811789,-0.7054838999999999,-2.0938303,-0.5565895000000001
52208,10:59:52.227000,3.6174831,-4.0172977,-11.2067757,1.05625,-2.5251009,-0.7508445
52209,10:59:52.235000,3.7898582999999997,-3.6294537000000004,-12.111745800000001,1.615802,-2.7596731,-0.8143744
52210,10:59:52.246000,3.416379,-3.4570785,-12.425372099999999,1.8613696,-2.9979103,-0.7752791
52211,10:59:52.257000,3.1458457,-3.9023809000000003,-12.712663699999998,1.7819573,-3.2349257000000002,-0.7007536
52212,10:59:52.264000,2.8417952,-4.5727286,-12.535500500000001,1.7819573,-3.2349257000000002,-0.7007536
52213,10:59:52.275000,2.8154602000000004,-5.4010868,-11.977676400000002,1.0586934,-3.7578261,-0.3733301
52214,10:59:52.283000,2.8561597,-5.6668315,-11.1612883,1.0586934,-3.7578261,-0.3733301
52215,10:59:52.294000,2.8322186,-5.7865367,-10.8117504,0.5956579000000001,-3.9875112,-0.1412015
52216,10:59:52.307000,2.52338,-5.7458372,-10.3568707,-0.1569273,-4.2514043,0.2045479
52217,10:59:52.312000,1.817121,-5.4369984,-9.4040203,-0.1569273,-4.2514043,0.2045479
52218,10:59:52.325000,1.1228323,-5.6452851,-9.1550341,-0.2485571,-4.3430343,0.3401599
52219,10:59:52.332000,0.3495384,-5.9828529,-9.5859709,-0.010319799999999999,-4.356473,0.3254991
52220,10:59:52.342000,-0.7373824000000001,-6.121710299999999,-9.2867088,0.28656040000000005,-4.3479209,0.3340513
52221,10:59:52.352000,-1.4484297,-5.8990593,-8.3314638,0.28656040000000005,-4.3479209,0.3340513
52222,10:59:52.361000,-1.7309333999999998,-5.4657273,-8.7959194,0.5516757,-4.357695099999999,0.3071732
52223,10:59:52.374000,-1.9296436000000001,-5.4441805,-7.517469900000001,0.8497777,-4.492084999999999,0.2546388
52224,10:59:52.381000,-2.056531,-5.312504799999999,-6.593348,0.8497777,-4.492084999999999,0.2546388
52225,10:59:52.391000,-2.2456646,-5.647678900000001,-6.169592400000001,0.6640748000000001,-4.5091890999999995,0.3108384
52226,10:59:52.399000,-2.7053316,-5.5495209999999995,-5.6668315,0.6640748000000001,-4.5091890999999995,0.3108384
52227,10:59:52.412000,-3.1242987999999996,-5.6668315,-5.4417862999999995,0.1876003,-4.3357038,0.44645039999999997
52228,10:59:52.423000,-3.7060647000000007,-5.8320246,-6.0091882000000005,0.012893,-4.211087200000001,0.4904326
52229,10:59:52.429000,-4.2591014000000005,-5.413057299999999,-6.306056,0.012893,-4.211087200000001,0.4904326
52230,10:59:52.440000,-4.582305,-5.2646232,-6.2126861,-0.1105016,-4.074254,0.5881708999999999
52231,10:59:52.449000,-4.529635,-5.5112157,-5.5782499,-0.1105016,-4.074254,0.5881708999999999
52232,10:59:52.461000,-4.5487876,-4.5439997000000005,-5.7506251,-0.2314529,-4.0485973,0.6077186
52233,10:59:52.467000,-4.3979597,-3.8521049,-6.2725387,-0.2314529,-4.0485973,0.6077186
52234,10:59:52.478000,-3.7730997000000004,-6.423367,-6.4832196,-0.4452555,-4.0033937,0.6064969
52235,10:59:52.488000,-4.529635,-6.9524631999999995,-6.7202349,-0.5491024999999999,-3.9276464,0.5136455
52236,10:59:52.497000,-4.9893022,-5.5782499,-5.8368125,-0.44769899999999996,-3.8482339,0.5735102
52237,10:59:52.509000,-4.7498922,-5.4968505,-5.097035900000001,-0.18747060000000002,-3.6515355000000005,0.5075367999999999
52238,10:59:52.520000,-4.9557843,-4.9893022,-5.0515485,-0.1691447,-3.5232539,0.4684415
52239,10:59:52.526000,-5.14013,-4.7403154,-5.0276074,-0.48557259999999997,-3.3937507000000005,0.5674015
52240,10:59:52.537000,-5.2933525999999995,-4.7139807000000005,-4.9294496,-0.8301003,-3.2666907000000003,0.53808
52241,10:59:52.545000,-5.312504799999999,-4.575122400000001,-5.362781,-0.8301003,-3.2666907000000003,0.53808
52242,10:59:52.554000,-5.2741995,-4.6924334000000005,-4.759468599999999,-1.1831801000000002,-3.107866,0.44400690000000004
52243,10:59:52.564000,-5.33884,-4.5009055,-5.0323954,-1.3664396,-2.9832494,0.330386
52244,10:59:52.574000,-5.2765937,-4.7403154,-5.080277400000001,-1.6413287,-2.8794026,0.2668561
52245,10:59:52.585000,-5.3747516,-5.046760099999999,-5.1329474,-1.8746791,-2.76456,0.14223970000000002
52246,10:59:52.593000,-5.556703099999999,-5.2526526,-5.0946422,-2.0848165,-2.6521609,0.0041843
52247,10:59:52.604000,-5.736260400000001,-5.367569400000001,-5.0156369000000005,-2.236311,-2.5568659,-0.098441
52248,10:59:52.613000,-5.9230003,-5.413057299999999,-4.8504438,-2.2973974,-2.4664581,-0.2169487
52249,10:59:52.623000,-6.1671987,-5.3268695,-4.950995900000001,-2.3022842,-2.3479502,-0.3427869
52250,10:59:52.633000,-6.3611207,-5.1497064,-4.9797254,-2.2717412,-2.1927905,-0.44419040000000004
52251,10:59:52.643000,-6.1983213,-4.5894876,-4.922267,-2.1972156000000003,-1.8140545,-0.6396672
52252,10:59:52.653000,-5.381934200000001,-4.3764124,-4.654128099999999,-2.1972156000000003,-1.8140545,-0.6396672
52253,10:59:52.661000,-4.417111900000001,-4.2327666,-4.3764124,-2.2912886,-1.7236464,-0.7520663000000001
52254,10:59:52.675000,-3.5672072999999997,-4.388382900000001,-4.2112193,-2.5270824,-1.6906598000000002,-0.8510264000000001
52255,10:59:52.681000,-3.1841512,-5.2047706,-4.3476834,-2.9290316,-1.6442339,-0.9267735
52256,10:59:52.691000,-3.296674,-6.2725387,-4.2998012999999995,-3.4946922999999996,-1.3669014,-1.1735628999999999
52257,10:59:52.704000,-3.8473167,-7.1224441999999994,-4.472176599999999,-3.2637853999999997,-1.2044115,-1.3226138
52258,10:59:52.711000,-4.5487876,-7.701815600000001,-5.0084542999999995,-3.2637853999999997,-1.2044115,-1.3226138
52259,10:59:52.725000,-5.0587306,-7.3762178,-4.7570739,-2.1141379000000002,-1.084682,-1.4643344999999999
52260,10:59:52.729000,-4.771439099999999,-6.792058,-4.2471309,-2.1141379000000002,-1.084682,-1.4643344999999999
52261,10:59:52.741000,-4.3788066,-6.437731299999999,-4.0077214,-1.2467101,-1.2471718999999999,-1.5364165
52262,10:59:52.750000,-3.9191399,-5.6907725,-3.6462126000000006,-1.2467101,-1.2471718999999999,-1.5364165
52263,10:59:52.758000,-3.3134327000000003,-5.6452851,-3.4786254999999997,-1.2051711999999999,-1.2276242,-1.5095383999999998
52264,10:59:52.773000,-3.0476878,-5.3891163,-4.115455600000001,-1.7036368999999998,-0.9246353999999999,-1.4631127
52265,10:59:52.778000,-2.9088298999999997,-5.8224478,-4.879172799999999,-1.9809694,-0.6851764,-1.3140618
52266,10:59:52.787000,-2.7484252000000002,-6.4832196,-5.556703099999999,-2.2961757,-0.5043604,-1.2896272
52267,10:59:52.798000,-2.9734707,-7.3043957,-5.9541235,-2.2961757,-0.5043604,-1.2896272
52268,10:59:52.807000,-3.7707055,-7.9508018,-5.9325767,-2.6407034,0.007544199999999999,-1.317727
52269,10:59:52.820000,-4.3979597,-8.6929731,-5.6931671999999995,-2.6407034,0.007544199999999999,-1.317727
52270,10:59:52.826000,-4.603851799999999,-9.3345909,-5.257441,-2.371923,0.2812116,-1.3140618
52271,10:59:52.837000,-4.417111900000001,-9.377684599999998,-5.164071099999999,-2.371923,0.2812116,-1.3140618
52272,10:59:52.846000,-4.3620481,-9.1382751,-5.3220816,-1.3542223,0.243338,-1.3641527
52273,10:59:52.855000,-4.752286,-8.087266,-5.3292642,-1.3542223,0.243338,-1.3641527
52274,10:59:52.865000,-4.9318433,-7.203843099999999,-4.9557843,-0.6016369,0.25066839999999996,-1.3751482
52275,10:59:52.874000,-4.374018700000001,-7.388188400000001,-5.0754895,-0.0530804,0.2665508,-1.389809
52276,10:59:52.890000,-3.7587349000000003,-7.9627724,-5.168858999999999,-0.0237588,0.10650430000000001,-1.3995829
52277,10:59:52.894000,-3.5839657999999996,-8.477503800000001,-5.0108485,-0.20335309999999998,0.1028391,-1.326279
52278,10:59:52.904000,-3.8856222999999996,-8.573267900000001,-4.974937000000001,-0.1740316,0.20912960000000003,-1.2786316
52279,10:59:52.913000,-4.2399492,-8.3649807,-4.9198732000000005,-0.1740316,0.20912960000000003,-1.2786316
52280,10:59:52.923000,-4.2184019,-8.175847099999999,-4.2399492,0.0556536,0.3117548,-1.2126582000000001
52281,10:59:52.934000,-3.7539468,-8.1902122,-4.1322145,0.4001813,0.3374112,-1.155237
52282,10:59:52.943000,-3.442714,-8.1902122,-4.7690444,1.0367023000000002,0.392389,-1.0672723999999998
52283,10:59:52.953000,-3.1889396,-8.4870796,-5.413057299999999,1.2016357,0.45225370000000004,-1.0110728999999998
52284,10:59:52.962000,-3.2751269,-8.453562699999999,-5.5495209999999995,1.2517266000000002,0.4742448,-0.960982
52285,10:59:52.971000,-3.4498963,-8.4583511,-5.4609389,1.2517266000000002,0.4742448,-0.960982
52286,10:59:52.985000,-3.4786254999999997,-8.4487743,-5.018031099999999,1.0709107,0.41071490000000005,-0.7728357
52287,10:59:53.006000,-3.2607625,-8.5158091,-4.529635,0.7056136,0.2103513,-0.5602548
52288,10:59:53.007000,-2.9615002,-8.834223699999999,-4.436265000000001,0.7056136,0.2103513,-0.5602548
52289,10:59:53.010000,-2.8681302000000004,-9.064058300000001,-5.0850654,0.5761103,0.1639256,-0.45762939999999996
52290,10:59:53.019000,-3.153028,-8.958718300000001,-5.3220816,0.5761103,0.1639256,-0.45762939999999996
52291,10:59:53.028000,-3.2320333,-8.7288837,-5.4010868,0.4820371,0.14071270000000002,-0.3317913
52292,10:59:53.039000,-3.2751269,-8.2596407,-5.022819,0.43561140000000004,0.07107410000000002,-0.2450485
52293,10:59:53.052000,-3.1051458999999997,-7.7999735,-4.704403900000001,0.4563808,-0.1439503,-0.1131017
52294,10:59:53.058000,-2.7053316,-7.893343400000001,-4.9557843,0.414842,-0.21481060000000002,-0.0727847
52295,10:59:53.069000,-2.5281682,-7.3331246,-3.9191399,0.414842,-0.21481060000000002,-0.0727847
52296,10:59:53.080000,-1.9080968,-7.589293,-3.5025665999999998,0.0886403,-0.2685667,0.0432796
52297,10:59:53.087000,-1.7859976000000002,-8.2045765,-3.5743894999999997,0.0886403,-0.2685667,0.0432796
52298,10:59:53.101000,-1.9727374,-8.2596407,-3.6031184,-0.07140629999999999,-0.1696066,0.040836199999999996
52299,10:59:53.107000,-2.2887584999999997,-8.130359599999998,-4.266284,-0.12394069999999999,-0.0242208,0.0811532
52300,10:59:53.118000,-2.6071734,-7.8717966,-4.0771503,0.24624339999999997,0.2103513,0.0518317
52301,10:59:53.126000,-2.9303767999999994,-6.9476743,-4.2591014000000005,0.24624339999999997,0.2103513,0.0518317
52302,10:59:53.137000,-2.6909671000000004,-6.811211099999999,-4.2064314000000005,0.414842,0.3435198,-0.0007026
52303,10:59:53.151000,-2.4276164000000002,-6.6053185,-4.651733900000001,0.414842,0.3435198,-0.0007026
52304,10:59:53.155000,-2.2313001,-7.088926299999999,-5.1281595,0.28656040000000005,0.39971940000000006,-0.066676
52305,10:59:53.169000,-2.2672114,-7.6778746,-5.3723574,0.051988400000000004,0.5341096,-0.1399798
52306,10:59:53.174000,-2.159477,-8.2883701,-4.9869075,-0.037197900000000006,0.5756484000000001,-0.1546405
52307,10:59:53.185000,-2.1738417,-8.3338575,-4.8863554,-0.0946192,0.5780919,-0.12043210000000001
52308,10:59:53.197000,-2.2001767000000005,-8.0441723,-4.522452400000001,-0.12394069999999999,0.5780919,-0.03857619999999999
52309,10:59:53.204000,-2.0421662,-7.7377272,-4.043633,-0.1972444,0.5756484000000001,0.0493883
52310,10:59:53.218000,-2.0278015,-7.13202,-4.1058793,-0.1972444,0.5756484000000001,0.0493883
52311,10:59:53.223000,-2.0110431,-6.8399401,-3.8712578,-0.3805039,0.5817571,0.1483484
52312,10:59:53.235000,-2.2552409,-6.4353375,-3.8951987999999997,-0.9583818999999999,0.6550608,0.31816880000000003
52313,10:59:53.243000,-2.6071734,-6.119316599999999,-3.8975928,-1.2369362,0.7027081999999999,0.35848579999999997
52314,10:59:53.254000,-2.8106720000000003,-5.9589119,-4.508088099999999,-1.3933176,0.7552426,0.33649470000000004
52315,10:59:53.269000,-3.0907815,-6.1839571,-5.0060606,-1.3737698999999999,0.7882293,0.2937342
52316,10:59:53.271000,-3.6270595,-6.2653565,-5.257441,-1.3737698999999999,0.7882293,0.2937342
52317,10:59:53.285000,-3.8544991000000004,-6.7441759,-5.5519152,-1.1049893999999998,0.8236595,0.21432179999999998
52318,10:59:53.291000,-4.1848845,-7.1200494999999995,-5.7985072,-1.1049893999999998,0.8236595,0.21432179999999998
52319,10:59:53.301000,-4.5894876,-7.2972131,-5.9182119,-0.8191046999999999,0.8419853999999999,0.13735279999999997
52320,10:59:53.310000,-5.0084542999999995,-7.498317699999999,-5.8966651,-0.8191046999999999,0.8419853999999999,0.13735279999999997
52321,10:59:53.320000,-5.3220816,-7.708998200000001,-5.9253945,-0.4574728,0.8749722,0.0616056
52322,10:59:53.333000,-5.7242899000000005,-7.687450900000001,-5.9948235,-0.3059784,0.8932981,0.034727499999999994
52323,10:59:53.339000,-5.9636998,-7.5198641,-6.092981299999999,-0.3059784,0.8932981,0.034727499999999994
52324,10:59:53.350000,-5.9038477,-7.4408588,-6.085799199999999,-0.0836236,0.8871894,-0.0312459
52325,10:59:53.359000,-5.855965599999999,-7.402553599999999,-6.3419676,-0.0469717,0.8639764999999999,-0.07156289999999998
52326,10:59:53.370000,-5.764989900000001,-7.4671940999999995,-6.7441759,-0.0469717,0.8639764999999999,-0.07156289999999998
52327,10:59:53.382000,-5.8248425,-7.486347200000001,-6.9883742,-0.1190538,0.8700851999999999,-0.14242320000000003
52328,10:59:53.387000,-5.8990593,-7.5868988,-7.390583,-0.1691447,0.8627548,-0.1802969
52329,10:59:53.398000,-5.8463888,-7.6443577000000005,-7.708998200000001,-0.189914,0.8346549999999999,-0.20717489999999997
52330,10:59:53.407000,-5.6955609,-7.483952499999999,-7.8909497,-0.189914,0.8346549999999999,-0.20717489999999997
52331,10:59:53.418000,-5.5016389000000006,-7.469587799999999,-8.0609303,-0.2143486,0.7882293,-0.21084009999999997
52332,10:59:53.430000,-5.2215295,-7.3642473,-8.0848713,-0.2497788,0.730808,-0.20228800000000002
52333,10:59:53.437000,-5.0587306,-7.3091836,-8.108812299999999,-0.4696901,0.6061916,-0.17174479999999998
52334,10:59:53.448000,-4.9366317,-7.361853599999999,-8.1327534,-0.5625415,0.5475485999999999,-0.1607492
52335,10:59:53.456000,-4.8743849,-7.361853599999999,-8.1949997,-0.5625415,0.5475485999999999,-0.1607492
52336,10:59:53.466000,-4.7020102,-7.536623,-8.2668228,-0.5759805,0.43392780000000003,-0.130206
52337,10:59:53.478000,-4.409930200000001,-7.7185745,-8.3314638,-0.5759805,0.43392780000000003,-0.130206
52338,10:59:53.486000,-4.1800966,-7.8454614000000005,-8.312311200000002,-0.2497788,0.26899429999999996,-0.1240973
52339,10:59:53.501000,-3.9502629999999996,-7.665903999999999,-8.1949997,0.021445099999999998,0.20302089999999998,-0.0935541
52340,10:59:53.504000,-3.7850699,-7.3283366999999995,-8.1183891,0.021445099999999998,0.20302089999999998,-0.0935541
52341,10:59:53.515000,-3.7276117999999996,-6.739388000000001,-7.9867134,0.4954762,0.1504866,-0.0239155
52342,10:59:53.523000,-3.6079068,-6.3180265,-7.9699545,0.4954762,0.1504866,-0.0239155
52343,10:59:53.533000,-3.2847035000000004,-6.1671987,-7.9316492,0.5712234,0.13338239999999998,0.024953700000000002
52344,10:59:53.547000,-3.0572641,-6.0905871,-7.804761900000001,0.44416350000000004,0.0576351,0.15445699999999998
52345,10:59:53.552000,-2.8394009999999996,-6.2701445,-7.6994214,0.44416350000000004,0.0576351,0.15445699999999998
52346,10:59:53.564000,-2.6766026000000003,-6.5909538,-7.572534599999999,0.3488686,0.027091900000000006,0.19721760000000002
52347,10:59:53.572000,-2.6861787,-6.9572511,-7.4264946,0.3195471,0.008765899999999998,0.2045479
52348,10:59:53.581000,-2.6359026,-7.2828484,-7.3331246,0.5003631,-0.014446899999999999,0.2570823
52349,10:59:53.594000,-2.5688679,-7.5031056,-7.167931599999999,0.6909529000000001,-0.043768400000000006,0.2937342
52350,10:59:53.601000,-2.4084632000000004,-7.5198641,-6.9955564,0.6909529000000001,-0.043768400000000006,0.2937342
52351,10:59:53.614000,-2.2839704,-7.361853599999999,-6.849516400000001,1.0684673,-0.0743117,0.3792552
52352,10:59:53.621000,-2.1977827999999997,-7.187084700000001,-6.646017999999999,1.0684673,-0.0743117,0.3792552
52353,10:59:53.634000,-2.1259596000000003,-7.1607494,-6.4784312,1.1833098,-0.058429199999999994,0.4672197
52354,10:59:53.639000,-2.0517426,-7.285242599999999,-6.0020055999999995,1.1833098,-0.058429199999999994,0.4672197
52355,10:59:53.651000,-2.0996243999999997,-7.4264946,-6.4042139,1.0684673,0.0063225,0.5527408
52356,10:59:53.663000,-2.2384822,-7.407341499999999,-6.4449139,1.0281502,0.0613003,0.5979448
52357,10:59:53.667000,-2.300729,-7.409735700000001,-6.200716000000001,1.0745759,0.08573489999999999,0.6297096999999999
52358,10:59:53.677000,-2.5161977,-7.232572599999999,-6.160016099999999,1.1356624,0.1040608,0.6590313
52359,10:59:53.687000,-2.7484252000000002,-6.909369,-5.9517293,1.15521,0.11872160000000001,0.6956831
52360,10:59:53.698000,-2.9710765,-6.698688499999999,-5.5543089000000005,1.15521,0.11872160000000001,0.6956831
52361,10:59:53.709000,-3.3565266000000005,-6.4305490999999995,-5.4968505,1.1295538,0.1162781,0.6956831
52362,10:59:53.717000,-3.5624189,-6.576589599999999,-4.0795441,1.0342588,0.12727370000000002,0.6651399
52363,10:59:53.727000,-3.6414242,-6.595742200000001,-3.7419762999999997,0.8998686,0.1443779,0.6064969
52364,10:59:53.737000,-3.8281641000000004,-7.1535668,-4.1058793,0.6604097,0.0930653,0.5417451999999999
52365,10:59:53.747000,-4.3476834,-7.5150762,-4.3261366,0.3659728,0.0429744,0.479437
52366,10:59:53.757000,-4.8863554,-7.7185745,-4.242342900000001,0.15827879999999997,0.050304699999999994,0.36092929999999995
52367,10:59:53.766000,-5.3962984,-7.900525999999999,-4.0292683,0.06664910000000002,0.0613003,0.1947741
52368,10:59:53.777000,-5.312504799999999,-8.312311200000002,-3.8904104,0.18027,-0.09263760000000001,-0.055680499999999994
52369,10:59:53.786000,-5.044365900000001,-8.499051099999999,-3.4139847999999997,0.18027,-0.09263760000000001,-0.055680499999999994
52370,10:59:53.796000,-4.7379217,-8.5612974,-2.9375593999999996,0.297556,-0.3125489,-0.21328360000000002
52371,10:59:53.805000,-4.611033900000001,-8.556509,-2.4946511,0.297556,-0.3125489,-0.21328360000000002
52372,10:59:53.815000,-4.5918813,-8.613966900000001,-2.157083,0.40506820000000004,-0.2710101,-0.3635563
52373,10:59:53.827000,-4.6613107000000005,-8.7456427,-2.0158311999999996,0.40262470000000006,-0.2001498,-0.4319731
52374,10:59:53.834000,-4.9318433,-8.8892889,-2.056531,0.3623077,-0.11951569999999999,-0.45885119999999996
52375,10:59:53.845000,-5.1904058,-9.080817199999998,-2.2217238,0.3048864,-0.0339946,-0.45762939999999996
52376,10:59:53.853000,-5.4202394,-9.2053099,-2.5473211,0.3048864,-0.0339946,-0.45762939999999996
52377,10:59:53.863000,-5.736260400000001,-9.1837626,-2.7603958,0.2315826,0.1052825,-0.44052520000000006
52378,10:59:53.873000,-5.8128719,-9.2316446,-3.1195107,0.2315826,0.1052825,-0.44052520000000006
52379,10:59:53.883000,-5.6835904,-9.200521499999999,-3.4044084999999997,0.25846060000000004,0.139491,-0.40142990000000006
52380,10:59:53.894000,-5.427422,-9.042511,-3.6079068,0.2963343,0.0955087,-0.3525607
52381,10:59:53.902000,-5.0754895,-9.2316446,-3.9574451,0.369638,0.0649655,-0.3207957
52382,10:59:53.913000,-4.9557843,-9.243615199999999,-4.2184019,0.401403,0.0698524,-0.2988046
52383,10:59:53.921000,-5.0323954,-9.188550900000001,-4.2279787,0.401403,0.0698524,-0.2988046
52384,10:59:53.931000,-5.0898538,-9.3321972,-4.405141400000001,0.26334759999999996,0.0796262,-0.1925142
52385,10:59:53.943000,-5.125765299999999,-9.2699499,-4.2878308,0.14972670000000002,0.0429744,-0.1289842
52386,10:59:53.950000,-5.034789599999999,-9.1981268,-4.1537614000000005,0.061762199999999996,-0.016890400000000003,-0.053237
52387,10:59:53.963000,-4.9150844000000005,-9.2412214,-3.9311101,0.0080061,-0.07186820000000001,-0.0141417
52388,10:59:53.969000,-4.984513300000001,-8.8366184,-3.7300057,0.0080061,-0.07186820000000001,-0.0141417
52389,10:59:53.980000,-4.9988779999999995,-8.573267900000001,-3.6725476,-0.13860139999999999,-0.0388815,0.0689359
52390,10:59:53.993000,-5.018031099999999,-8.4439859,-4.1537614000000005,-0.2497788,0.0026573,0.109253
52391,10:59:53.999000,-4.9797254,-8.4487743,-5.1712537,-0.2497788,0.0026573,0.109253
52392,10:59:54.009000,-5.0036664,-8.3601933,-6.0091882000000005,-0.461138,0.025870099999999997,0.258304
52393,10:59:54.019000,-4.7905917,-7.9962902,-6.3156323,-0.461138,0.025870099999999997,0.258304
52394,10:59:54.027000,-4.2830424,-7.893343400000001,-6.8638811,-0.48557259999999997,-0.0401032,0.303508
52395,10:59:54.037000,-3.8688636,-7.668298700000001,-7.2613015,-0.3878342,-0.1366199,0.31816880000000003
52396,10:59:54.047000,-3.2272451,-7.321154099999999,-7.929255,-0.2143486,-0.2209192,0.3548206
52397,10:59:54.059000,-2.5114095,-7.4935288,-6.638835899999999,0.2315826,-0.49703,0.40002459999999995
52398,10:59:54.066000,-2.1187775,-7.0434384,-5.4202394,0.4722633,-0.619203,0.4159071
52399,10:59:54.077000,-1.7740271,-6.7872701,-4.8336854,0.49914140000000007,-0.6350855,0.46355459999999993
52400,10:59:54.086000,-1.4220946,-7.148778900000001,-4.2040377,0.46126769999999995,-0.6289768,0.4916544
52401,10:59:54.095000,-1.2736604999999999,-7.0769558,-3.3972260999999997,0.46126769999999995,-0.6289768,0.4916544
52402,10:59:54.112000,-1.2185962,-6.885428,-3.0812049,0.1228487,-0.5349036,0.6920179
52403,10:59:54.115000,-1.1539556,-6.6125007,-3.0237467000000002,0.0006757000000000001,-0.42494799999999994,0.737222
52404,10:59:54.126000,-1.0749503,-6.267750299999999,-3.0189586,0.0006757000000000001,-0.42494799999999994,0.737222
52405,10:59:54.134000,-1.0294625,-5.719501999999999,-3.126693,-0.1605926,-0.2600145,0.8154126
52406,10:59:54.145000,-0.6895005,-5.343628400000001,-2.9638944,-0.28520890000000004,-0.17693689999999998,0.8129691
52407,10:59:54.157000,-0.122099,-5.3244753,-2.4539514,-0.28520890000000004,-0.17693689999999998,0.8129691
52408,10:59:54.164000,0.6703475999999999,-5.5710678,-2.0780778000000004,-0.43303820000000004,-0.1280678,0.7616565
52409,10:59:54.175000,1.4364593,-5.8655419,-1.333513,-0.9107344,-0.0046731,0.6822441
52410,10:59:54.182000,2.3557932,-6.2797208,-0.5482486,-0.9107344,-0.0046731,0.6822441
52411,10:59:54.192000,3.3421616999999997,-6.971615299999999,0.11731079999999999,-1.6730937,0.24455970000000002,0.48921090000000006
52412,10:59:54.201000,4.515270200000001,-7.7736387,0.7445647,-1.6730937,0.24455970000000002,0.48921090000000006
52413,10:59:54.212000,5.9397588,-8.8366184,0.5267016999999999,-2.2741845,0.45225370000000004,0.36092929999999995
52414,10:59:54.223000,7.2636956999999995,-10.038456,-0.6320420999999999,-3.0597564999999998,0.749134,0.2925124
52415,10:59:54.232000,8.4559574,-11.2857809,-1.7309333999999998,-3.864876,1.1083223999999998,0.3108384
52416,10:59:54.242000,8.7863417,-11.855577499999999,-3.8305580999999997,-4.371893900000001,1.4882803,0.3548206
52417,10:59:54.253000,8.9946289,-12.7749109,-4.9916959,-3.8905327000000005,2.3043953999999998,0.3071732
52418,10:59:54.262000,8.5397501,-13.131631900000002,-5.0132432,-2.8703885,2.6379275,0.2839603
52419,10:59:54.272000,8.357798599999999,-13.620027499999999,-3.6246655,-1.6266678999999997,2.9690163,0.3413816
52420,10:59:54.279000,8.5086269,-13.574540099999998,-3.3900437000000005,-0.4391468,3.2781138,0.47332840000000004
52421,10:59:54.289000,9.1598225,-12.997562400000001,-3.5097487000000003,0.5296845,3.5688855999999998,0.7152308
52422,10:59:54.299000,9.9714212,-12.5115604,-4.7427095999999995,0.5296845,3.5688855999999998,0.7152308
52423,10:59:54.310000,10.3257484,-11.642501800000002,-6.672352799999999,1.4166602,4.3251362,1.3505301
52424,10:59:54.319000,10.1198549,-10.7471094,-8.9754763,1.4166602,4.3251362,1.3505301
52425,10:59:54.328000,9.478237199999999,-10.6154337,-11.2211409,1.2896003,4.7283068,1.7329314999999998
52426,10:59:54.341000,8.5900259,-10.9003325,-12.6049299,0.7899129,5.3758235,2.3156965
52427,10:59:54.348000,7.831097099999999,-11.5658913,-13.9504128,0.7899129,5.3758235,2.3156965
52428,10:59:54.358000,7.4169178,-12.0255585,-14.8529892,0.5260194,5.5798526,2.6638894
52429,10:59:54.368000,7.4169178,-12.2099037,-16.4618225,0.3794119,5.7008038,3.0621731
52430,10:59:54.378000,7.8143387,-11.7526312,-18.362737699999997,0.8094606,5.7679987,3.9076099
52431,10:59:54.389000,8.0369892,-10.720773699999999,-21.3242378,1.3299173,5.770442,4.3535414
52432,10:59:54.396000,7.893343400000001,-9.2244616,-24.3623486,1.3299173,5.770442,4.3535414
52433,10:59:54.407000,7.618022,-8.4870796,-28.109113699999998,1.7685182000000002,5.7875461999999995,4.7835898
52434,10:59:54.416000,7.0865326,-8.62115,-31.7218075,1.8674783,5.6482692000000005,5.1830955
52435,10:59:54.426000,6.6101065000000006,-8.822254199999998,-32.686630199999996,1.6732233,5.2475419,5.641243900000001
52436,10:59:54.439000,7.2565136,-8.788737300000001,-32.3873672,1.2150748,3.8254487999999998,7.0608935
52437,10:59:54.445000,8.403286900000001,-8.0657187,-31.250169800000002,1.2150748,3.8254487999999998,7.0608935
52438,10:59:54.455000,8.776765800000002,-6.698688499999999,-29.835258500000002,1.0782411,2.8822734,7.796374799999999
52439,10:59:54.470000,6.6699591,-4.1896729,-29.109846100000002,1.0709107,1.3722159999999999,9.0107737
52440,10:59:54.474000,3.4690489999999996,-1.0893148000000001,-28.5783558,1.0709107,1.3722159999999999,9.0107737
52441,10:59:54.493000,-0.9696100000000001,4.6948276,-26.945581400000002,2.0055337,-0.3736354,9.367518400000002
52442,10:59:54.505000,-2.7675784,6.1983213,-25.250560800000002,2.7129152000000003,-1.0333693000000002,9.0914078
52443,10:59:54.512000,-4.5894876,7.069773700000001,-23.548355100000002,2.7129152000000003,-1.0333693000000002,9.0914078
52444,10:59:54.521000,-5.7865367,7.486347200000001,-22.420734399999997,3.7281722999999998,-1.526948,8.6686897
52445,10:59:54.531000,-6.3754849,7.4408588,-20.6443138,4.7641993,-1.9142363000000002,8.1677809
52446,10:59:54.541000,-6.535889599999999,7.3139715,-19.124059699999997,5.6328487,-2.2783117,7.688862299999999
52447,10:59:54.554000,-6.3802729000000005,7.5557756,-17.797729500000003,6.1508617,-2.6301696,7.3345609
52448,10:59:54.560000,-6.346756,8.357798599999999,-16.263113,6.1264272,-3.0284536,7.1427493
52449,10:59:54.572000,-5.990035099999999,9.4112024,-14.982270199999999,5.2003565,-3.4939324999999997,6.8104391
52450,10:59:54.580000,-5.3460225999999995,10.371235800000001,-14.120393799999999,4.8423896,-3.6539791,6.4622459
52451,10:59:54.591000,-4.5727286,10.297019,-12.9233446,4.8423896,-3.6539791,6.4622459
52452,10:59:54.600000,-4.4697824,10.608251600000001,-12.1285038,4.974336599999999,-3.7883692000000004,5.9234633
52453,10:59:54.609000,-5.0946422,11.4413977,-11.778966,5.5448842,-3.8201342000000005,5.3846807
52454,10:59:54.621000,-5.427422,11.307328199999999,-10.265894900000001,6.554032799999999,-3.6637527999999997,4.6858515999999995
52455,10:59:54.629000,-5.164071099999999,10.0097265,-9.631459199999998,6.554032799999999,-3.6637527999999997,4.6858515999999995
52456,10:59:54.639000,-5.1281595,8.582843800000001,-9.1143341,6.5418153,-3.6319877999999997,4.3633150999999994
52457,10:59:54.649000,-5.5231862000000005,7.5557756,-8.9874468,6.1252055,-3.5208104,4.1067519
52458,10:59:54.659000,-6.052281400000001,6.875851600000001,-9.485419300000002,4.225416200000001,-3.0027971,3.8624059999999996
52459,10:59:54.671000,-6.581377499999999,6.2318392,-8.7288837,3.0574427,-2.7169125,3.5765211999999997
52460,10:59:54.677000,-6.6819296,5.8176599,-6.7609348,3.0574427,-2.7169125,3.5765211999999997
52461,10:59:54.690000,-5.7817483,5.2694116,-4.6708865,1.9358952,-2.5727484,3.1892331
52462,10:59:54.697000,-4.256707700000001,4.6206107,-3.1937277,0.7935781,-2.6631565,2.8202708
52463,10:59:54.708000,-2.863342,4.213614,-2.2025707000000003,-0.9938120999999999,-3.0614402000000003,2.1690888
52464,10:59:54.716000,-1.9966784,4.1322145,-1.3430893,-0.9938120999999999,-3.0614402000000003,2.1690888
52465,10:59:54.727000,-1.4580061000000002,4.3141661,-0.9432749,-1.4934994,-3.0968704,1.8954215
52466,10:59:54.737000,-1.0150979,4.7881975,-1.3861831,-1.8783441000000003,-2.9380455000000003,1.5777719
52467,10:59:54.746000,-0.49797250000000004,4.9342375,-2.2696054,-2.244863,-2.7059168999999996,1.1037408000000002
52468,10:59:54.756000,-0.1005521,4.824109099999999,-3.3852558,-2.6407034,-2.3051896000000003,-0.2804787
52469,10:59:54.773000,0.18434560000000003,4.5942755,-4.4602059999999994,-2.7518806000000002,-2.1891252999999997,-0.9670907
52470,10:59:54.776000,0.5889483,4.1417909,-5.044365900000001,-2.8728317999999997,-2.2257773999999997,-1.5535207
52471,10:59:54.787000,1.3263308,3.5887538999999995,-5.4705157,-2.8728317999999997,-2.2257773999999997,-1.5535207
52472,10:59:54.793000,2.4539514,3.1769691000000004,-5.6357083,-2.9656835,-2.4750102000000003,-2.0263299999999997
52473,10:59:54.802000,4.318954,3.0931754000000002,-4.9294496,-2.949801,-3.3961940000000004,-2.6591859
52474,10:59:54.812000,5.7314725,5.3699636,-5.2047706,-2.949801,-3.3961940000000004,-2.6591859
52475,10:59:54.823000,10.3305359,6.437731299999999,-4.5799112,-2.8838274,-3.80303,-2.7532589
52476,10:59:54.834000,14.929599800000002,6.7369938,-4.457811799999999,-2.8496192000000002,-4.4798679,-3.1686471000000003
52477,10:59:54.843000,18.1855736,6.815999000000001,-4.1034851,-2.8593929,-4.9221339,-3.9395583
52478,10:59:54.852000,19.641185800000002,6.2940855,-3.8736517,-3.1355037999999995,-4.8488302,-4.5589752
52479,10:59:54.862000,19.4161396,3.2200627,-3.952657,-3.5753263999999993,-4.5580587,-4.9206071
52480,10:59:54.872000,18.4201965,-0.3806617,-2.5329566000000003,-3.820894,-4.394346700000001,-5.2235961
52481,10:59:54.881000,17.3141212,-3.7707055,-1.1970493999999998,-3.7854638,-4.2795043,-5.2578044
52482,10:59:54.891000,16.7922077,-7.905314,1.6950218999999997,-3.7512555,-3.9972849000000004,-4.9083896
52483,10:59:54.901000,16.0907383,-10.9218779,4.974937000000001,-4.4256496,-2.8989501,-4.1338134
52484,10:59:54.910000,14.805107099999999,-12.6025362,6.286903400000001,-4.4256496,-2.8989501,-4.1338134
52485,10:59:54.920000,12.904192,-13.983930599999999,5.530367900000001,-6.4195123,-0.8427795,-4.1032701000000005
52486,10:59:54.931000,10.7854147,-14.8338356,4.673281200000001,-6.4195123,-0.8427795,-4.1032701000000005
52487,10:59:54.941000,8.3290691,-16.3995762,3.6988826,-7.936900099999999,0.3936107,-3.2162945
52488,10:59:54.952000,6.083405,-19.0354805,2.5497153,-8.7334681,0.9104021999999999,-2.6518555
52489,10:59:54.958000,4.0747561,-22.028102899999997,0.1005521,-8.7334681,0.9104021999999999,-2.6518555
52490,10:59:54.969000,1.9679491999999998,-25.240984,-2.9040418,-9.6302176,1.4528501,-2.4612658
52491,10:59:54.978000,-0.339962,-28.2048779,-5.870329900000001,-10.228864699999999,1.9354331000000002,-2.5260173999999997
52492,10:59:54.990000,-1.9583727,-31.362693800000002,-7.486347200000001,-9.8684549,2.0453889,-2.5003610000000003
52493,10:59:54.997000,-1.3718187,-32.751270299999995,-7.771244500000001,-9.8684549,2.0453889,-2.5003610000000003
52494,10:59:55.006000,0.8259639999999999,-31.745750399999995,-7.3594593999999995,-9.2319336,1.7338479,-2.508913
52495,10:59:55.019000,2.9471354,-28.6046925,-8.257247,-7.8330531,1.5457014999999998,-2.0434343999999998
52496,10:59:55.035000,6.428154900000001,-24.754982000000002,-11.118194599999999,-6.584446000000001,2.527972,-1.8149708999999998
52497,10:59:55.044000,7.3810066999999995,-23.1269932,-14.240098999999999,-6.584446000000001,2.527972,-1.8149708999999998
52498,10:59:55.054000,8.0968418,-22.0496502,-16.4235172,-6.2289224,3.3062136,-1.8271881
52499,10:59:55.064000,8.8701363,-21.3984547,-18.8631039,-5.7768825999999995,4.1443205,-1.7685452000000002
52500,10:59:55.073000,9.317832000000001,-20.1319752,-18.3411903,-5.456789499999999,4.9726529,-1.6353766
52501,10:59:55.083000,8.9395647,-18.4776535,-17.2734222,-5.2515388,5.7924333,-1.4240173999999999
52502,10:59:55.092000,7.249331,-16.4211235,-17.828853600000002,-5.3382816,7.165657,-0.8485828999999999
52503,10:59:55.102000,5.1137948,-15.279137599999999,-18.1161461,-5.3382816,7.165657,-0.8485828999999999
52504,10:59:55.112000,2.8465835999999998,-13.210637099999998,-14.0222359,-5.5154324,7.5395064,-0.48328580000000004
52505,10:59:55.123000,-0.33517379999999997,-10.2132254,-11.096648199999999,-5.603396900000001,7.675118400000001,-0.0972193
52506,10:59:55.133000,-4.096303,-7.390583,-7.701815600000001,-6.573450099999999,7.131448700000001,1.0499847
52507,10:59:55.142000,-7.1799021,-4.3859892,-9.068845699999999,-6.573450099999999,7.131448700000001,1.0499847
52508,10:59:55.152000,-6.5430722,-5.9828529,-12.8515224,-7.724319500000001,6.4680495,1.7317096999999997
52509,10:59:55.162000,-3.9837801,-9.8086233,-16.0189152,-8.8654146,3.7680273,3.6033992999999995
52510,10:59:55.172000,-2.7029376,-11.7550249,-18.3124619,-8.8654146,3.7680273,3.6033992999999995
52511,10:59:55.183000,-3.8975928,-12.906585699999999,-18.0945988,-4.4232062999999995,2.2958434,3.3162928
52512,10:59:55.191000,-7.062591599999999,-11.2163534,-16.4211235,-4.4232062999999995,2.2958434,3.3162928
52513,10:59:55.201000,-8.233305900000001,-7.0458326,-16.1649551,0.965842,1.2488213,2.9509957
52514,10:59:55.210000,-5.0204248,-5.4322099999999995,-14.929599800000002,0.965842,1.2488213,2.9509957
52515,10:59:55.220000,-0.435726,-3.8281641000000004,-15.5616417,2.288975,-0.0914159,3.0426254
52516,10:59:55.231000,3.1554222000000003,-4.0292683,-15.4563017,2.8876223999999997,-1.3107018,3.3077407
52517,10:59:55.239000,1.1755025,-2.3749461,-17.393127399999997,3.1075337000000003,-1.8959103,3.3798227
52518,10:59:55.252000,-3.7659172999999995,-1.1826848,-18.1879673,3.2174892,-0.6265334,3.2869713
52519,10:59:55.258000,-8.3314638,1.7381157999999999,-16.8185444,3.2174892,-0.6265334,3.2869713
52520,10:59:55.268000,-9.234039300000001,5.647678900000001,-16.346906699999998,3.0452254,-0.43227840000000006,3.3871531000000004
52521,10:59:55.279000,-5.3555989,2.3390346,-13.0693846,2.7116933,-1.0248171999999998,3.4482396
52522,10:59:55.287000,-1.5657406,-0.4069968,-13.028684599999998,3.5375824000000002,-2.0461829,3.1257031000000004
52523,10:59:55.299000,-0.1915279,-2.1882062,-7.7736387,7.579063900000001,-3.8018084,2.7836187000000003
52524,10:59:55.307000,-7.6922393,6.1001635,-18.508777600000002,7.579063900000001,-3.8018084,2.7836187000000003
52525,10:59:55.317000,-9.3345909,18.1999378,-18.6955185,7.1758928,-2.1671343,4.561235
52526,10:59:55.327000,-2.7723663,17.124988600000002,-8.491867999999998,7.1758928,-2.1671343,4.561235
52527,10:59:55.337000,1.6327753999999999,10.3903894,-5.082671599999999,6.3048,-4.5397324999999995,3.0279646000000002
52528,10:59:55.349000,3.2511859,5.2765937,-5.1233716,8.0995197,-4.5617237,1.7048317
52529,10:59:55.356000,2.4108574000000003,1.8793674999999999,-3.1841512,8.0995197,-4.5617237,1.7048317
52530,10:59:55.365000,-0.2298335,-0.1364636,-3.9239278,9.0988951,-3.5599057999999997,2.9644348999999997
52531,10:59:55.375000,-2.6143558,-2.9303767999999994,-6.8782454,9.0988951,-3.5599057999999997,2.9644348999999997
52532,10:59:55.385000,-4.2854371,-5.3005347,-10.550792699999999,7.6328197,-1.7089855999999999,3.3895967000000002
52533,10:59:55.395000,-5.1521006,-4.642157599999999,-8.7336721,7.6328197,-1.7089855999999999,3.3895967000000002
52534,10:59:55.404000,-4.374018700000001,-3.2392156,-5.8080834999999995,5.982263099999999,-2.0816131,3.7878803999999997
52535,10:59:55.415000,-2.8274305,-3.3732852999999996,-2.6143558,2.9499307,-4.3650255,5.0768051
52536,10:59:55.423000,-1.4484297,-4.1106677000000005,1.1731083,2.9499307,-4.3650255,5.0768051
52537,10:59:55.433000,-0.0694289,-5.1521006,4.4242945,-0.034754400000000005,-5.1237192,5.4640932
52538,10:59:55.443000,0.6607713000000001,-6.8040285,4.4242945,-0.034754400000000005,-5.1237192,5.4640932
52539,10:59:55.453000,0.6344361999999999,-11.118194599999999,3.0907815,-1.8514662,-4.9416814,5.2197474999999995
52540,10:59:55.464000,-0.387844,-12.671964599999999,0.16279870000000002,-4.8837985999999995,-3.3033426,3.5325388999999996
52541,10:59:55.472000,-0.895393,-12.4205837,-2.7220902000000002,-4.8837985999999995,-3.3033426,3.5325388999999996
52542,10:59:55.481000,0.6392244,-14.4507799,-3.3972260999999997,-6.941190700000001,-3.4646108,1.0866367000000001
52543,10:59:55.492000,5.08746,-17.1393528,-1.0222802,-6.941190700000001,-3.4646108,1.0866367000000001
52544,10:59:55.501000,12.801245699999999,-19.315588,3.7036707000000004,-7.225853900000001,-4.2550697,-0.1656361
52545,10:59:55.520000,18.676364899999996,-24.0654793,-2.9758646,-5.470228700000001,-0.8183449,-4.1619129
52546,10:59:55.532000,16.1745319,-19.8470783,-4.0819383,-3.3248718,-0.36263979999999996,-5.3372169000000005
52547,10:59:55.540000,14.795530300000001,-15.6574059,0.2920801,-3.3248718,-0.36263979999999996,-5.3372169000000005
52548,10:59:55.550000,15.9686394,-17.0220413,8.3697691,-3.0487609,0.9201761,-6.397677900000001
52549,10:59:55.559000,15.291109099999998,-22.0233135,5.037183799999999,-3.0487609,0.9201761,-6.397677900000001
52550,10:59:55.569000,16.866426500000003,-27.508194,-1.3071779,-4.8092728,3.0398767,-6.5284028
52551,10:59:55.581000,14.783559799999999,-26.208198499999998,-7.290030499999999,-8.7493505,5.6507125,-6.2779484000000005
52552,10:59:55.589000,11.915429099999999,-22.9546185,-8.4583511,-8.7493505,5.6507125,-6.2779484000000005
52553,10:59:55.599000,7.9795308,-20.0098782,-10.948213599999999,-11.8000088,6.584114100000001,-3.1026735
52554,10:59:55.607000,2.7388489,-17.7402725,-12.6169004,-11.8000088,6.584114100000001,-3.1026735
52555,10:59:55.617000,-7.2660894,-16.2104435,-10.5340338,-13.439569500000001,7.851047,-1.7037933999999997
52556,10:59:55.630000,-16.1410141,-16.866426500000003,-8.2548523,-14.2642374,9.142415,-0.7874964
52557,10:59:55.637000,-12.327214199999998,-17.7642117,-16.0620079,-14.3118849,8.6659403,0.17522639999999998
52558,10:59:55.647000,-2.6766026000000003,-14.649490400000001,-16.7347507,-12.236166,6.158952200000001,1.8648783
52559,10:59:55.656000,2.0445604,-7.3714299,-27.256813,-7.8941393,3.2158057999999996,3.5117694999999998
52560,10:59:55.666000,0.7972349,1.0941031,-31.321994800000002,-2.8325147999999998,1.2353823,3.442131
52561,10:59:55.677000,-8.6857901,8.0681133,-16.5336456,2.5577555,1.0533445,2.0383639
52562,10:59:55.685000,-11.762207,15.971033100000001,-12.4636784,6.9791946,2.2262049,0.9717939
52563,10:59:55.696000,-2.1235654,7.0171037,-7.823914500000001,4.022609200000001,-0.0950811,0.8801643
52564,10:59:55.705000,2.3510051,-1.8554264999999999,-12.5498657,4.022609200000001,-0.0950811,0.8801643
52565,10:59:55.714000,0.8020231,-4.601458099999999,-9.461478199999998,1.1307755,-0.7108327,1.7390401000000002
52566,10:59:55.724000,-4.3812003,-0.5290958,-12.535500500000001,1.1307755,-0.7108327,1.7390401000000002
52567,10:59:55.734000,-7.165537400000001,4.2231898,-16.7108097,1.3787866000000002,0.25066839999999996,1.9846077000000002
52568,10:59:55.747000,-4.898325900000001,3.6270595,-14.031812699999998,4.6310306,-0.26245799999999997,2.1055589
52569,10:59:55.753000,-2.4778922000000003,2.5832324,-12.573806800000002,4.6310306,-0.26245799999999997,2.1055589
52570,10:59:55.766000,-1.7572685000000001,2.7196963,-9.3968382,6.4746203,-1.3339148,2.0860114
52571,10:59:55.773000,-2.7580017999999997,2.7125139,-6.152833900000001,7.6780238,-1.5391653,1.9601731
52572,10:59:55.782000,-3.7252178,0.411785,-7.874190799999999,8.590655300000002,-1.3119235,1.8661
52573,10:59:55.798000,-5.6716199000000005,-2.3677638,-11.257052400000001,9.7671814,-1.2862673,1.9699471000000002
52574,10:59:55.801000,-11.714325,4.4410529,-10.4574232,9.7671814,-1.2862673,1.9699471000000002
52575,10:59:55.812000,-8.781554199999999,5.3962984,-2.6335083999999997,8.165494,-1.8067241000000003,3.2735324
52576,10:59:55.821000,-4.4027476,3.0021996,-5.2502584,8.165494,-1.8067241000000003,3.2735324
52577,10:59:55.831000,-4.2519193,2.4946511,-4.8408675,7.9529128,-3.1151962,2.6333461
52578,10:59:55.841000,-5.8870888,3.5719953,-2.4826806,7.9248133,-3.0589967000000002,2.7152019
52579,10:59:55.849000,-4.9988779999999995,2.7149078999999996,-1.2832369,7.4336777000000005,-2.7279081,3.2527627999999997
52580,10:59:55.861000,-2.7723663,1.0893148000000001,-0.8618754999999999,5.542440900000001,-3.238591,3.2674236
52581,10:59:55.870000,-1.3215424999999998,-0.217863,0.12928130000000002,5.542440900000001,-3.238591,3.2674236
52582,10:59:55.879000,-0.28729190000000004,-2.5999912999999997,3.8808341,4.5919352,-3.1652873,3.5752995000000003
52583,10:59:55.889000,1.0581916999999998,-6.1384692,7.361853599999999,4.5919352,-3.1652873,3.5752995000000003
52584,10:59:55.900000,2.7244842,-8.9563227,7.816732400000001,3.3518796,-2.3430633999999997,4.386528
52585,10:59:55.915000,4.0484209,-11.2211409,6.5334954000000005,2.9633696,-1.7847328000000002,4.624764900000001
52586,10:59:55.919000,3.7323998999999994,-13.9959011,5.3005347,3.4215181000000006,-1.1311076,4.729833599999999
52587,10:59:55.929000,1.5226468,-15.135492300000001,4.8456559,4.126456299999999,-0.754815,4.8520069
52588,10:59:55.936000,1.1946553,-15.5041828,5.4250278,4.126456299999999,-0.754815,4.8520069
52589,10:59:55.945000,3.7443705,-18.240638699999998,9.116727800000001,3.873558,-1.1335511,4.7884769
52590,10:59:55.955000,6.6412301,-19.1144848,14.524996799999998,2.6958108,-1.6674468999999998,4.1336298
52591,10:59:55.965000,7.6994214,-20.172676100000004,17.369186399999997,0.9169729,-1.6564511999999998,3.2014503
52592,10:59:55.977000,8.3554049,-19.049844699999998,19.3443184,-2.7787588,-1.5794823,0.8936033000000001
52593,10:59:55.986000,8.1399355,-15.101975400000002,16.8185444,-2.7787588,-1.5794823,0.8936033000000001
52594,10:59:55.996000,7.3714299,-10.9913073,11.8220596,-6.0029025,-1.8775842,-2.6469686
52595,10:59:56.005000,5.8990593,-9.6362467,4.8648086,-6.0029025,-1.8775842,-2.6469686
52596,10:59:56.015000,7.6635098,-13.0262909,1.6184107,-8.9130621,-0.8342274,-5.3787556
52597,10:59:56.027000,13.2082434,-18.5518723,3.4522904999999997,-10.2117605,-0.0388815,-6.574828599999999
52598,10:59:56.034000,17.687601100000002,-25.3439293,2.4994389999999997,-10.2117605,-0.0388815,-6.574828599999999
52599,10:59:56.046000,18.5063839,-29.3588314,-0.4237555,-10.0297232,2.9726814999999998,-7.9651570000000005
52600,10:59:56.053000,13.387800199999997,-24.2187023,-3.0859932999999997,-10.0297232,2.9726814999999998,-7.9651570000000005
52601,10:59:56.063000,8.305128100000001,-16.9071255,-3.3852558,-8.4219265,4.286040799999999,-7.9651570000000005
52602,10:59:56.074000,5.8272367,-14.936781900000001,-1.4292768999999999,-7.062141900000001,4.98487,-7.449586900000001
52603,10:59:56.092000,-0.3279915,-13.7612801,-4.7570739,-6.602771799999999,5.2903023000000005,-6.612702400000001
52604,10:59:56.102000,-5.855965599999999,-12.1213217,-8.9204121,-8.8654146,6.5499057999999994,-3.3189197
52605,10:59:56.112000,-11.0104599,-10.6441631,-15.3102608,-12.606349900000001,8.3079739,-1.0843766000000001
52606,10:59:56.121000,-9.9594507,-11.292964,-17.6133842,-12.606349900000001,8.3079739,-1.0843766000000001
52607,10:59:56.131000,-6.7729053,-11.4413977,-18.2190914,-13.0547247,5.9158278,0.0738229
52608,10:59:56.142000,-3.8209815000000003,-9.521330800000001,-19.2892532,-9.5899,1.9696417000000002,2.9900911
52609,10:59:56.150000,-0.5003666,-7.852644000000001,-17.9581337,-9.5899,1.9696417000000002,2.9900911
52610,10:59:56.160000,0.9456690000000001,-4.6277928,-17.6971779,-1.2100582,-0.2441321,2.7017629000000003
52611,10:59:56.169000,0.7086533,-2.7005434,-17.6349316,-1.2100582,-0.2441321,2.7017629000000003
52612,10:59:56.180000,-1.0749503,-0.5314899000000001,-17.1178055,6.8203697,0.1040608,2.0163727
52613,10:59:56.192000,-4.0077214,1.7357216,-16.038068799999998,8.6822853,0.5890873999999999,2.0249248
52614,10:59:56.198000,-7.8215202999999995,4.1489735,-14.2209473,8.6822853,0.5890873999999999,2.0249248
52615,10:59:56.208000,-11.1708651,9.758345599999998,-13.9982948,9.2271767,0.8908545,2.2790446
52616,10:59:56.218000,-9.6697655,10.158161199999999,-12.4301615,8.0017815,0.7332515000000001,2.7139802000000004
52617,10:59:56.228000,-5.499245200000001,4.0220861,-9.3202257,5.4019417999999995,-1.3827839,2.0701289000000003
52618,10:59:56.238000,-4.1968551,-0.8403287,-10.565157899999999,5.4019417999999995,-1.3827839,2.0701289000000003
52619,10:59:56.247000,-7.108078999999999,-1.5968639,-15.5017891,5.0293145,-1.6161341999999999,1.6681799
52620,10:59:56.258000,-10.3042011,5.8607535,-12.0303459,4.0336046,-1.1860855,2.4207652000000004
52621,10:59:56.266000,-6.8183932,5.7051377,-4.2734666,4.0336046,-1.1860855,2.4207652000000004
52622,10:59:56.276000,-1.7285392,0.24419810000000003,-5.1592832,4.4868665,-3.7871474999999997,1.4922507999999999
52623,10:59:56.286000,0.5195194000000001,-2.3342462000000004,-5.1592832,4.4868665,-3.7871474999999997,1.4922507999999999
52624,10:59:56.295000,0.5362781,-2.135536,-3.2056982999999994,4.9682279000000005,-4.4835329,1.5606676000000002
52625,10:59:56.308000,-0.4309378,-1.6998101000000003,-1.7405096999999998,5.9272857000000005,-3.6344314,2.5649292
52626,10:59:56.315000,-1.1850789,-1.7429038000000001,-0.9073634,5.9272857000000005,-3.6344314,2.5649292
52627,10:59:56.327000,-1.0557975,-1.9416142,-0.8786343000000001,6.119097200000001,-2.9649236,2.9509957
52628,10:59:56.334000,-0.7732939,-2.279182,-1.5585582,6.119097200000001,-2.9649236,2.9509957
52629,10:59:56.344000,-0.6416184,-2.6239324,-1.8889439,5.6438441,-3.1958303,3.3236232000000006
52630,10:59:56.355000,-0.5554309000000001,-3.3493443,-0.5913424,5.0598574,-3.3424379999999996,3.7438982000000003
52631,10:59:56.363000,-0.28010959999999996,-4.5032997,1.9416142,4.412341099999999,-3.2422562000000004,4.0652132000000005
52632,10:59:56.374000,0.045487900000000005,-5.3699636,4.3093777,2.1924584,-2.9661453,4.726168599999999
52633,10:59:56.383000,0.21068070000000003,-5.5519152,5.9110298,2.1924584,-2.9661453,4.726168599999999
52634,10:59:56.393000,0.12449310000000001,-5.197588400000001,6.9811921,0.4783719,-2.9465976,5.111013400000001
52635,10:59:56.402000,-0.3854499,-4.457811799999999,6.8710637000000006,-1.3395615,-2.8696287,5.2478470999999995
52636,10:59:56.412000,-1.1731083,-3.1410575,4.5200586,-2.9925612999999998,-2.6558261,5.010831400000001
52637,10:59:56.424000,-1.3119662,-3.6270595,2.0278015,-5.328507900000001,-2.1817951,3.8477452000000003
52638,10:59:56.431000,-0.9576395000000001,-7.7951856,0.9552454,-5.328507900000001,-2.1817951,3.8477452000000003
52639,10:59:56.444000,-0.775688,-12.3966427,-0.019152799999999998,-7.385900500000001,-2.5165488999999996,2.9729869
52640,10:59:56.450000,2.2600293,-20.5078506,-1.2185962,-7.385900500000001,-2.5165488999999996,2.9729869
52641,10:59:56.460000,8.556509,-29.792163800000004,-5.1305537,-9.297906900000001,-2.5446486,2.1348805
52642,10:59:56.472000,12.4756489,-37.8483086,-8.819860499999999,-10.8104076,-0.6448593,-0.6066805000000001
52643,10:59:56.479000,10.0767622,-30.893449800000003,-6.698688499999999,-10.8104076,-0.6448593,-0.6066805000000001
52644,10:59:56.490000,7.6156277999999995,-22.2723007,-8.707337400000002,-7.6949978,1.0667837,-2.2999973
52645,10:59:56.499000,7.1248379,-18.7386093,-9.0353289,-7.6949978,1.0667837,-2.2999973
52646,10:59:56.510000,7.4384651,-16.9526138,-12.509165800000002,-8.9032879,3.0068897999999997,-2.721494
52647,10:59:56.522000,8.9970226,-17.2159634,-14.790741899999999,-10.5355186,4.769846,-2.7593677000000003
52648,10:59:56.528000,11.271416699999998,-18.307674399999996,-15.836962699999997,-10.5355186,4.769846,-2.7593677000000003
52649,10:59:56.541000,11.283387199999998,-18.544687300000003,-18.2262745,-13.549525299999999,8.2273397,-1.8601748
52650,10:59:56.547000,8.793524699999999,-17.8958874,-19.8973541,-13.549525299999999,8.2273397,-1.8601748
52651,10:59:56.557000,5.082671599999999,-17.2039948,-21.6163177,-14.2984457,9.6787539,-0.4918379
52652,10:59:56.566000,-0.10773440000000001,-15.6621943,-25.731773399999998,-13.8977184,10.424009300000002,0.8923815
52653,10:59:56.577000,-4.927054900000001,-13.7971907,-26.517038300000003,-12.1372061,10.188215300000001,2.2973703999999997
52654,10:59:56.595000,-3.0141702,-7.9436197,-18.0754452,-8.9191704,8.8797436,3.5826298999999997
52655,10:59:56.608000,0.49797250000000004,-4.6780691,-15.7675343,3.2248197,2.2372002999999996,3.9405966
52656,10:59:56.615000,1.7572685000000001,-1.9751314999999998,-14.091665300000003,3.2248197,2.2372002999999996,3.9405966
52657,10:59:56.625000,-1.5226468,2.5066216,-13.560174900000002,5.2846556,1.4235287,3.4567916
52658,10:59:56.637000,-5.5160035999999995,7.756879799999999,-17.5319862,3.9957309000000003,1.4882803,3.1831243
52659,10:59:56.645000,-4.0292683,3.442714,-12.078228,3.9957309000000003,1.4882803,3.1831243
52660,10:59:56.656000,-3.9239278,0.35432659999999994,-12.35355,1.8039484000000001,-0.2697884,2.5820334
52661,10:59:56.664000,-3.7323998999999994,-1.5801051000000002,-10.1892843,1.8039484000000001,-0.2697884,2.5820334
52662,10:59:56.674000,-4.0220861,-1.0318565,-10.5412169,2.9010613,-0.9612873,3.1330335
52663,10:59:56.683000,-4.400353400000001,1.0581916999999998,-9.4399309,2.9010613,-0.9612873,3.1330335
52664,10:59:56.692000,-5.630920400000001,4.974937000000001,-11.1541061,4.5137444,-0.9234136000000001,3.2197762
52665,10:59:56.704000,-4.3859892,8.0585365,-7.8789792,7.1978841000000005,-1.0187085,3.4457962999999996
52666,10:59:56.712000,-2.1906002,5.2598348,-8.793524699999999,7.1978841000000005,-1.0187085,3.4457962999999996
52667,10:59:56.722000,-1.0605857,-0.7445647,-7.900525999999999,8.6248636,-1.1543205,2.7811754
52668,10:59:56.732000,-4.043633,-0.3112328,-14.929599800000002,10.6614866,-1.0064912,2.2814879
52669,10:59:56.742000,-8.973081599999999,6.0810108,-17.622959100000003,11.3297729,0.0906218,3.360275
52670,10:59:56.753000,-8.1710587,10.5412169,-7.0913205,10.0579529,-0.3064403,3.4714525000000003
52671,10:59:56.761000,-1.7859976000000002,5.4441805,-6.006794,10.0579529,-0.3064403,3.4714525000000003
52672,10:59:56.773000,1.333513,1.2473254999999999,-7.771244500000001,8.468483,-1.7835112000000002,2.7811754
52673,10:59:56.780000,0.6655594,1.5370114,-8.7695837,7.6902409,-2.6875911,2.3291353999999997
52674,10:59:56.790000,-2.0924423,1.9296436000000001,-7.524652499999999,7.9419174,-1.7627418000000001,2.7848406000000003
52675,10:59:56.799000,-5.37954,1.9248554,-7.3139715,7.9419174,-1.7627418000000001,2.7848406000000003
52676,10:59:56.809000,-6.796846400000001,1.4125183000000001,-7.5031056,8.3194313,-0.8281187,2.8385966000000002
52677,10:59:56.819000,-5.5279741,0.14125179999999998,-6.1743803,7.7659883,-1.043143,2.9925346
52678,10:59:56.828000,-2.956712,-1.4005477,-4.7498922,6.7177444,-2.1610255,3.370049
52679,10:59:56.839000,-0.8044171999999999,-1.7548743000000002,-4.5655465,4.3475895,-3.8592296000000004,4.0102353
52680,10:59:56.848000,0.3112328,-1.2856309,-3.8928044,4.3475895,-3.8592296000000004,4.0102353
52681,10:59:56.858000,0.4046027,-0.581766,-1.8626089,3.0916512000000003,-4.074254,4.2386985
52682,10:59:56.872000,-0.23222759999999998,-1.1300146999999998,1.0629798000000001,1.9090171000000002,-3.8824425000000002,4.4366188
52683,10:59:56.877000,-1.139591,-1.0294625,3.4355318999999995,0.6836225,-3.3180034,4.5416875
52684,10:59:56.887000,-1.5633465,-0.8786343000000001,4.1992487999999994,-2.7152287999999998,-2.9502627999999995,4.534357099999999
52685,10:59:56.896000,-1.4915235,-2.0014665000000003,4.1872787,-2.7152287999999998,-2.9502627999999995,4.534357099999999
52686,10:59:56.906000,-1.5346173,-4.7738328,3.7371883,-4.2961464000000005,-3.2862384,4.2558026
52687,10:59:56.919000,-1.5489819,-8.010654400000002,3.7012767999999996,-7.0071639999999995,-3.4511719,3.6522684
52688,10:59:56.925000,-0.7780821,-13.2154245,1.4939176,-7.0071639999999995,-3.4511719,3.6522684
52689,10:59:56.936000,1.1324087,-20.1894341,-3.5097487000000003,-10.6906786,-3.4719412000000003,2.5954726000000004
52690,10:59:56.944000,9.827775,-30.6085529,-5.1544943,-10.6906786,-3.4719412000000003,2.5954726000000004
52691,10:59:56.955000,14.1850348,-39.1842155,-12.0638638,-10.3913546,-2.6057351000000004,-0.3293478
52692,10:59:56.963000,10.8213263,-32.5645332,-4.9725428,-10.3913546,-2.6057351000000004,-0.3293478
52693,10:59:56.974000,7.1583557,-24.4269905,-0.48600200000000005,-3.3774061,-1.2117417,-2.8644363999999998
52694,10:59:56.986000,5.2646232,-19.8446846,0.8068113,-2.9351401000000004,-0.5972118000000001,-3.5950305
52695,10:59:56.991000,5.310111,-17.6085968,2.9615002,-2.9351401000000004,-0.5972118000000001,-3.5950305
52696,10:59:57.001000,6.4257612,-16.9406414,4.1106677000000005,-3.9638364,0.39483240000000003,-4.2926383
52697,10:59:57.011000,7.826309200000001,-17.0986538,2.8537657000000003,-5.7377872000000005,1.4528501,-4.921828700000001
52698,10:59:57.020000,9.593154,-18.0562916,-0.3806617,-8.2350025,2.6770229,-5.1673965
52699,10:59:57.030000,10.2994127,-19.1336384,-7.13202,-11.134165800000002,4.163868,-4.9926891
52700,10:59:57.039000,9.2819214,-19.4712067,-13.0598087,-14.000343300000003,5.9194932,-4.3793807000000005
52701,10:59:57.050000,6.004399299999999,-19.054632199999997,-18.693124800000003,-16.255657199999998,7.588375599999999,-3.2126292999999997
52702,10:59:57.059000,-1.333513,-19.1073017,-23.9912643,-17.7217331,8.7991085,-1.6036116000000002
52703,10:59:57.068000,-10.692045199999999,-20.1152172,-25.8035965,-16.7724476,9.0300159,1.1465013000000002
52704,10:59:57.078000,-11.4294271,-22.121471399999997,-20.182252899999998,-16.7724476,9.0300159,1.1465013000000002
52705,10:59:57.088000,-5.2741995,-18.257398600000002,-19.6100616,-12.9569864,6.625652799999999,1.9345168000000001
52706,10:59:57.099000,0.7493529000000001,-12.937709800000002,-18.5925694,0.7471524,1.8841205,3.3236232000000006
52707,10:59:57.107000,2.7651839,-9.0472994,-17.405098000000002,0.7471524,1.8841205,3.3236232000000006
52708,10:59:57.117000,-0.3998145,-3.9574451,-18.731428100000002,6.457516200000001,1.0447924000000002,2.918009
52709,10:59:57.127000,-6.9811921,3.6653652,-18.345977800000004,9.8441496,1.3954289,2.5233905
52710,10:59:57.137000,-10.3520832,10.198861099999998,-15.6143122,10.3743811,2.0563843,2.8214924
52711,10:59:57.149000,-6.229445,10.9984903,-13.842679,4.9889975,0.3374112,3.5801864
52712,10:59:57.157000,-1.4268829,5.37954,-10.5388231,4.9889975,0.3374112,3.5801864
52713,10:59:57.166000,-2.3677638,3.6055129,-7.302001,2.0189729,-0.7059458000000001,3.505661
52714,10:59:57.177000,-5.8966651,5.764989900000001,-7.9508018,0.699505,-0.7719191999999999,3.4567916
52715,10:59:57.185000,-6.6627769,6.3156323,-8.7647963,0.8497777,-0.3601964,3.5862951
52716,10:59:57.196000,-5.6069794,7.6778746,-12.7078762,2.541873,-0.42006109999999997,3.3175147000000003
52717,10:59:57.205000,-3.0428995999999997,8.2428818,-9.0137815,5.015875299999999,-0.8965356,2.9766521
52718,10:59:57.215000,-1.5417996999999999,5.7338667,-12.394249,7.5949464,-1.5171742,2.6797718999999995
52719,10:59:57.225000,-1.5609524,3.0476878,-15.748381599999998,10.0897179,-1.6882162,2.204519
52720,10:59:57.235000,-3.4905961000000003,6.0690403,-16.9406414,12.6443539,-1.6540078999999999,2.4268739
52721,10:59:57.244000,-2.1522946,4.4697824,-10.3760242,12.6443539,-1.6540078999999999,2.4268739
52722,10:59:57.254000,0.42136140000000005,-0.038305599999999995,-9.7990456,10.2925243,-2.2453249,2.4586387000000003
52723,10:59:57.266000,1.3670303999999998,-2.9806529999999998,-9.6841288,10.2925243,-2.2453249,2.4586387000000003
52724,10:59:57.274000,0.2777155,-3.0716287999999996,-9.7727108,8.612647099999998,-2.7242429,2.5673728
52725,10:59:57.284000,-1.2162021,-2.1427186000000003,-9.186157199999998,6.527154400000001,-2.3638327,3.1538029
52726,10:59:57.293000,-2.8681302000000004,-1.4388534,-8.4152575,6.527154400000001,-2.3638327,3.1538029
52727,10:59:57.303000,-3.6821237,-0.895393,-7.13202,6.1117668,-2.136591,3.2332153
52728,10:59:57.315000,-3.0859932999999997,-0.2944742,-5.2789874,5.6023054000000005,-2.4823406,3.4152529
52729,10:59:57.322000,-1.7644508,0.3447502,-3.2799153,4.921802,-3.3473248,3.6510468
52730,10:59:57.336000,-0.8331464,0.5003666,-0.8714519000000001,3.6756379999999997,-4.7816348,4.0652132000000005
52731,10:59:57.351000,-0.6775299,-0.3064446,4.3812003,3.6756379999999997,-4.7816348,4.0652132000000005
52732,10:59:57.361000,-0.9672159,-2.1690536,8.999417300000001,1.8540393,-4.9966593,4.5148095999999995
52733,10:59:57.370000,-0.4931844,-5.2646232,9.624277099999999,0.5614494999999999,-4.8451648,4.4915967000000006
52734,10:59:57.381000,1.0534035,-8.0393839,10.4047527,-0.9510514999999999,-4.6215887,4.222816000000001
52735,10:59:57.390000,2.813066,-10.507699,10.4310884,-2.8178542,-4.3772426,3.8599625
52736,10:59:57.399000,4.876779099999999,-14.4651451,7.6922393,-4.695652,-3.9826242999999995,3.4433527
52737,10:59:57.409000,9.4135962,-18.831979800000003,7.3259419999999995,-6.164170700000001,-3.3253337999999997,2.8361533
52738,10:59:57.420000,13.141207699999999,-20.9411812,0.9576395000000001,-7.1549935,-2.6338348,1.938182
52739,10:59:57.431000,15.8489342,-20.5988255,0.9839745999999999,-6.9448562,-1.8018372,-0.9169997999999999
52740,10:59:57.439000,18.372314499999998,-19.0666027,5.1808295,-6.9448562,-1.8018372,-0.9169997999999999
52741,10:59:57.449000,19.1432133,-18.037139899999996,5.7554135,-7.1818714,-0.6020988,-1.8161924999999999
52742,10:59:57.458000,18.231061899999997,-21.8796673,5.0707011,-7.1818714,-0.6020988,-1.8161924999999999
52743,10:59:57.468000,16.0644035,-27.1131687,1.8219091,-9.377319300000002,1.3257902,-2.2401326
52744,10:59:57.479000,13.469200099999998,-31.3076305,-5.669226200000001,-11.6888313,3.6409675999999997,-3.0684652000000003
52745,10:59:57.487000,9.4566898,-29.3229218,-9.9307222,-12.8714657,5.658042900000001,-3.6866602999999993
52746,10:59:57.497000,6.3443613,-22.77985,-12.231450099999998,-12.4255342,6.8773289,-3.7294209
52747,10:59:57.506000,6.4904013,-17.9748936,-10.701621099999999,-11.1818132,7.313486599999999,-3.2407291000000003
52748,10:59:57.517000,7.100896799999999,-16.2822666,-12.1308985,-10.016283999999999,7.5737147,-1.8430706000000001
52749,10:59:57.526000,5.3699636,-14.4938736,-16.4211235,-10.016283999999999,7.5737147,-1.8430706000000001
52750,10:59:57.535000,2.0301956999999997,-13.7038212,-16.715597199999998,-10.6198177,7.7875175,-0.49428130000000003
52751,10:59:57.547000,-3.1985159,-13.6750917,-17.1154118,-11.088962599999999,7.873038799999999,0.7286698
52752,10:59:57.555000,-7.483952499999999,-14.3741693,-17.2015991,-10.706561099999998,7.5944842999999995,1.4458251
52753,10:59:57.565000,-6.8399401,-13.220212900000002,-17.6133842,-5.125701,4.8126063,2.8642529999999997
52754,10:59:57.575000,-4.0723619,-9.1741858,-17.5726833,-5.125701,4.8126063,2.8642529999999997
52755,10:59:57.583000,-2.4659216,-2.5329566000000003,-20.4049034,-0.9229516999999999,3.2451272,3.5533082
52756,10:59:57.595000,-2.4826806,1.5777111000000001,-16.2607193,5.3848376,1.9024465,3.3101842000000006
52757,10:59:57.603000,-3.7970405,5.4609389,-15.2144976,5.3848376,1.9024465,3.3101842000000006
52758,10:59:57.613000,-3.7922525,6.6340475,-13.0502319,5.8747511,1.7790518,2.9131222
52759,10:59:57.623000,-3.1434517000000004,3.3780732,-12.073439599999999,5.8747511,1.7790518,2.9131222
52760,10:59:57.633000,-5.3005347,1.6974159,-12.7102699,4.4648752,1.4442979999999999,2.8691399
52761,10:59:57.645000,-9.207703599999999,0.5865541999999999,-11.8962774,3.1466291,1.4394112,3.0316297999999997
52762,10:59:57.652000,-13.610450699999998,3.3349794999999998,-14.8984766,2.5272121,1.5542536,2.9888694
52763,10:59:57.662000,-12.2218742,4.405141400000001,-15.3270197,3.1869462000000004,1.0704489,3.1415856
52764,10:59:57.672000,-6.9955564,3.9933567,-13.203454999999998,3.1869462000000004,1.0704489,3.1415856
52765,10:59:57.681000,-3.5504483999999996,-1.5441937,-15.338991199999999,4.638361,-0.4359436,2.542938
52766,10:59:57.691000,-3.8999867,-6.909369,-11.8292418,6.8887863,-1.2092983999999998,1.7353749
52767,10:59:57.701000,-9.1765804,-0.8475109000000001,-21.3170567,9.3554583,-1.4927393999999998,1.6522974
52768,10:59:57.712000,-11.3408461,9.257980300000002,-13.9982948,7.981012799999999,-1.3669014,3.2417674
52769,10:59:57.720000,-5.3412347,9.4973898,-5.37954,7.981012799999999,-1.3669014,3.2417674
52770,10:59:57.732000,1.8482443,2.4443748,-4.8121386,6.005476,-3.7492737999999997,1.7231576000000002
52771,10:59:57.739000,3.5336897000000005,-0.3495384,-4.8576264,6.005476,-3.7492737999999997,1.7231576000000002
52772,10:59:57.749000,0.8810283000000001,-1.1515615,-4.9629664,5.474023799999999,-4.1316752,1.7671398999999997
52773,10:59:57.761000,-2.640691,-1.8889439,-6.3084502,6.1704097,-2.5360966,2.7921709999999997
52774,10:59:57.768000,-5.030001599999999,-2.7101197,-6.4640665,6.1704097,-2.5360966,2.7921709999999997
52775,10:59:57.779000,-5.6189499000000005,-3.4714432,-5.8870888,6.444077,-1.9215665000000002,2.470856
52776,10:59:57.787000,-4.1681261,-4.0795441,-4.457811799999999,6.380547,-2.2538772000000002,2.5319426
52777,10:59:57.796000,-2.1546887999999997,-3.8784398999999996,-2.4395863999999996,5.0867357,-4.4578767,4.1971598
52778,10:59:57.808000,-0.4381201,-3.0979638,-0.5123371,5.0867357,-4.4578767,4.1971598
52779,10:59:57.817000,0.7182297,-3.0620522,1.623199,2.2743142000000005,-5.0052114,4.7127295
52780,10:59:57.828000,1.5370114,-5.4465747,5.796113,2.2743142000000005,-5.0052114,4.7127295
52781,10:59:57.836000,1.4125183000000001,-7.900525999999999,9.521330800000001,0.9560681999999999,-4.4749808,4.5624571
52782,10:59:57.847000,1.3957596,-9.4016256,7.895737599999999,-2.5527389,-3.1823914,4.3840842
52783,10:59:57.857000,1.7069923999999999,-11.144530300000001,4.800168,-2.5527389,-3.1823914,4.3840842
52784,10:59:57.865000,2.5904147999999996,-13.514686600000001,2.9208004,-5.5032153,-3.1640656000000003,3.1904547
52785,10:59:57.877000,4.4147182,-16.0811615,1.091709,-6.3376565000000005,-3.2434778,2.3450179
52786,10:59:57.884000,7.2541189,-18.6955185,-1.8003622,-6.3376565000000005,-3.2434778,2.3450179
52787,10:59:57.894000,11.269022900000001,-21.4798546,-2.8298247,-6.9680686000000005,-3.1347438999999997,1.328539
52788,10:59:57.904000,12.1452627,-21.5468884,-3.9454749,-7.0279336,-3.0150144,0.0212885
52789,10:59:57.913000,11.8148766,-19.8566551,-1.6806574,-6.2729049,-2.3565023,-1.1735628999999999
52790,10:59:57.926000,11.1541061,-17.7498474,2.1690536,-5.680366,-0.7120544,-2.8106804
52791,10:59:57.933000,9.2412214,-15.9830027,1.4412475,-5.680366,-0.7120544,-2.8106804
52792,10:59:57.942000,8.5277796,-14.0677242,-2.2983347999999997,-6.8190179,0.8199943000000001,-3.5376093
52793,10:59:57.952000,9.384866699999998,-14.6183672,-5.9110298,-8.4194832,2.2982869,-4.3879333
52794,10:59:57.972000,10.806962,-14.635126099999999,-16.6485634,-9.7939291,3.3953998,-5.0281191
52795,10:59:57.982000,10.8955431,-18.207120899999996,-17.5391674,-11.482358900000001,5.5370917,-5.0549974
52796,10:59:57.993000,9.1981268,-22.9881363,-15.8680859,-10.1885471,7.2059741,-4.4502410999999995
52797,10:59:58.002000,5.6428905,-24.8651104,-14.0413895,-10.1885471,7.2059741,-4.4502410999999995
52798,10:59:58.010000,1.5130703,-25.6072807,-12.9424982,-9.906328199999999,7.508963099999999,-2.0055606
52799,10:59:58.021000,-1.9224613000000002,-23.402315100000003,-15.386873199999998,-9.906328199999999,7.508963099999999,-2.0055606
52800,10:59:58.029000,-3.6079068,-18.800857500000003,-13.9504128,-9.3357801,6.4668279,-0.31468709999999994
52801,10:59:58.042000,-2.592809,-14.5130272,-11.1493177,-5.8611817,3.7631404,2.5441599
52802,10:59:58.049000,-1.64714,-10.031273800000001,-11.6448956,-5.8611817,3.7631404,2.5441599
52803,10:59:58.061000,-2.7843367999999997,-6.978797900000001,-11.5658913,-0.3194174,2.4729941,2.7164237
52804,10:59:58.069000,-6.1839571,-2.2336943,-13.1268435,-0.3194174,2.4729941,2.7164237
52805,10:59:58.079000,-8.1614828,1.4149123,-14.4675388,1.855261,2.4253466,2.6260157000000004
52806,10:59:58.088000,-6.997950599999999,2.7101197,-11.1588936,2.5711944,1.9659765,2.403661
52807,10:59:58.098000,-1.8027563999999998,-1.3311188,-8.4344101,2.6506069,1.425972,2.5172818
52808,10:59:58.112000,-0.1867397,-4.5894876,-8.8557711,2.2315536,0.3826151,2.6577806
52809,10:59:58.117000,-4.1848845,-3.9167454,-8.9850531,2.2315536,0.3826151,2.6577806
52810,10:59:58.128000,-7.8909497,0.17955739999999998,-13.1124792,4.0592608,1.2304955,3.6046209000000005
52811,10:59:58.137000,-5.8631482,5.3986925999999995,-13.787614800000002,4.0592608,1.2304955,3.6046209000000005
52812,10:59:58.147000,-2.8178542,4.9869075,-11.8220596,4.7067776,0.7332515000000001,3.7157983999999997
52813,10:59:58.157000,-2.1906002,0.2609568,-12.4277668,7.6487020999999995,-0.24901900000000002,2.7542972999999997
52814,10:59:58.166000,-4.9079027,-1.0988913999999999,-16.571952800000002,7.6487020999999995,-0.24901900000000002,2.7542972999999997
52815,10:59:58.180000,-9.1143341,7.7808208,-19.5526047,9.4177666,-0.5141342999999999,3.2625368
52816,10:59:58.184000,-7.668298700000001,13.2752781,-9.0592699,8.384182899999999,-1.2080765,3.2527627999999997
52817,10:59:58.194000,-2.4587395,8.1471176,-5.719501999999999,8.384182899999999,-1.2080765,3.2527627999999997
52818,10:59:58.203000,0.7062590999999999,3.9454749,-5.7937188,7.5827289,-2.4530189,1.5667763000000001
52819,10:59:58.212000,0.2489863,1.2664783000000002,-5.726684099999999,7.5827289,-2.4530189,1.5667763000000001
52820,10:59:58.225000,-2.5161977,0.11252260000000001,-7.2996068,8.753145199999999,-2.6301696,1.9931598000000001
52821,10:59:58.233000,-5.6620436,-0.4381201,-8.1638765,8.753145199999999,-2.6301696,1.9931598000000001
52822,10:59:58.242000,-6.866274799999999,-1.3406953000000001,-7.9627724,9.2308416,-2.2392163,2.2375057000000003
52823,10:59:58.252000,-5.0419722,-2.7603958,-6.4401255,9.113555900000001,-2.4102585,2.4867383999999997
52824,10:59:58.262000,-1.6998101000000003,-4.5631518,-3.9813862,8.538121199999999,-3.2434778,2.8324881
52825,10:59:58.274000,0.8475109000000001,-5.1736474,-2.473104,6.869238900000001,-4.7022227999999995,3.6522684
52826,10:59:58.281000,2.1642652,-4.4338708,-1.4675825,6.869238900000001,-4.7022227999999995,3.6522684
52827,10:59:58.291000,2.3557932,-3.9239278,0.4429083,5.897964,-4.7242136,4.1030865
52828,10:59:58.301000,1.3430893,-4.139396700000001,1.6064403,5.151487400000001,-4.2391872,4.3449888
52829,10:59:58.310000,-0.122099,-4.122638200000001,1.8889439,4.5821614,-3.3974159,4.429288400000001
52830,10:59:58.323000,-0.3734794,-3.9933567,3.8880162000000005,3.959079,-2.5849657,4.5722308
52831,10:59:58.330000,0.0263351,-4.7331328,4.5009055,3.223598,-2.3479502,4.705399
52832,10:59:58.341000,2.1283537999999997,-6.854304300000001,9.200521499999999,1.860148,-2.8219812,4.684629900000001
52833,10:59:58.349000,3.0596582999999997,-9.775105499999999,10.5460052,1.860148,-2.8219812,4.684629900000001
52834,10:59:58.359000,6.6675649,-17.302152600000003,16.5911045,1.1857532,-2.6020699,4.2448072
52835,10:59:58.369000,9.3609257,-22.392005899999997,16.2607193,0.7153875,-2.1084912,3.256428
52836,10:59:58.378000,12.2960911,-23.768611899999996,14.929599800000002,0.0495449,-2.2208902999999998,1.6730667000000001
52837,10:59:58.390000,13.684667600000001,-20.335473999999998,18.0945988,-1.7354019,-3.8018084,-1.5180906
52838,10:59:58.398000,16.3397236,-16.4905529,22.6577492,-1.7354019,-3.8018084,-1.5180906
52839,10:59:58.408000,21.2883263,-13.0622034,24.5371189,-6.3315477,-4.0229411,-3.6719995
52840,10:59:58.417000,26.4188805,-15.4443312,24.8842621,-6.3315477,-4.0229411,-3.6719995
52841,10:59:58.427000,25.4133587,-19.6866741,13.7469149,-9.460396800000002,-2.8977284,-4.5088844
52842,10:59:58.440000,21.254808399999998,-19.3922005,4.9916959,-13.5861769,1.0411271999999998,-6.4709816
52843,10:59:58.446000,19.4424763,-18.2023315,8.937171000000001,-13.5861769,1.0411271999999998,-6.4709816
52844,10:59:58.458000,16.3373299,-16.4929466,7.390583,-14.8274546,3.8621004,-5.7538266
52845,10:59:58.466000,13.773249599999998,-15.090004,-0.7637175,-14.8274546,3.8621004,-5.7538266
52846,10:59:58.475000,10.337717999999999,-13.196271900000001,-7.8861612999999995,-16.9178352,5.959810299999999,-2.9328532000000003
52847,10:59:58.494000,-3.7730997000000004,-13.6319981,-14.984664000000002,-16.9178352,5.959810299999999,-2.9328532000000003
52848,10:59:58.509000,-9.9905739,-19.703432100000004,-19.176729199999997,-12.2911444,6.8993201,0.35970759999999996
52849,10:59:58.514000,-8.269216499999999,-22.8420963,-17.4793148,-12.2911444,6.8993201,0.35970759999999996
52850,10:59:58.524000,-5.1616769,-15.6430407,-18.9038048,-1.9577565,3.2549009,1.5032463
52851,10:59:58.533000,-3.5001721,-9.0903931,-19.588516199999997,-1.9577565,3.2549009,1.5032463
52852,10:59:58.543000,-1.9559786,-7.110473599999999,-10.297019,2.0177509999999996,2.4473379,3.0279646000000002
52853,10:59:58.555000,-1.0294625,-4.1298203,-6.547860099999999,5.3359685,1.0582316,3.1660202
52854,10:59:58.561000,-1.5585582,0.36629709999999993,-9.243615199999999,4.4648752,1.1914001,3.2087807999999995
52855,10:59:58.573000,-3.6510005,3.4235613,-15.0684576,3.6402078,1.7619476000000003,3.3248447999999997
52856,10:59:58.582000,-6.1384692,3.0021996,-12.8203993,3.6402078,1.7619476000000003,3.3248447999999997
52857,10:59:58.591000,-7.713786099999999,2.9806529999999998,-7.6036577,2.2657621,1.6055663,3.220998
52858,10:59:58.604000,-8.491867999999998,3.6486065,-12.5977478,1.1674273000000002,0.9275065,3.1098206000000004
52859,10:59:58.611000,-7.4935288,-0.045487900000000005,-12.6456299,1.1674273000000002,0.9275065,3.1098206000000004
52860,10:59:58.622000,-6.1145282,-2.2815759,-6.5215249,2.7055848,-0.3650833,3.3847096
52861,10:59:58.631000,-6.169592400000001,0.9360925999999999,-10.6896505,2.7055848,-0.3650833,3.3847096
52862,10:59:58.640000,-2.5880208,-6.763329,-9.0856047,3.3054538,-0.6546331999999999,3.5789647000000007
52863,10:59:58.650000,-4.6277928,-6.8902159,-22.6601448,4.7568687999999995,-1.0284824000000001,3.2429891
52864,10:59:58.659000,-8.496656399999999,8.0752954,-16.6748981,5.5717621,-0.8769879,4.4854879
52865,10:59:58.670000,-4.0125093000000005,7.199055199999999,-1.0988913999999999,5.5717621,-0.8769879,4.4854879
52866,10:59:58.679000,1.8985202,1.7620566000000002,-6.171986599999999,6.0763364,-1.9423361000000001,3.9845786
52867,10:59:58.689000,3.2056982999999994,0.1197049,-8.9563227,7.0146246,-3.4523935,3.2588716
52868,10:59:58.698000,2.1953886000000002,-0.3998145,-5.6237378,7.0146246,-3.4523935,3.2588716
52869,10:59:58.708000,-0.004788199999999999,-0.10773440000000001,-5.9852471,6.948651299999999,-3.0589967000000002,3.9748049
52870,10:59:58.720000,-1.3143603000000001,-0.22025709999999998,-7.369036200000001,6.604123599999999,-2.1854601000000002,4.1287427
52871,10:59:58.727000,-1.7859976000000002,-0.9767923000000001,-6.112133999999999,5.9187335999999995,-1.6540078999999999,3.7109115
52872,10:59:58.739000,-2.4683158,-1.1802906000000002,-4.8121386,4.4098973,-2.0791698,3.6522684
52873,10:59:58.747000,-2.8513715,-1.3933655,-3.8784398999999996,4.4098973,-2.0791698,3.6522684
52874,10:59:58.756000,-2.1738417,-2.3414285,0.009576399999999999,3.1221945,-2.5385401,4.233811900000001
52875,10:59:58.767000,-0.8427228000000001,-3.6533947,4.3620481,1.8051701,-3.0480012999999997,4.505035400000001
52876,10:59:58.776000,0.5410663,-6.3515439,5.9756703,0.5211325,-3.3974159,4.4634967
52877,10:59:58.789000,1.0821326,-10.9290609,8.6714258,-1.8392488,-3.2801297,4.257024299999999
52878,10:59:58.796000,1.6303812,-12.5929594,12.1380806,-1.8392488,-3.2801297,4.257024299999999
52879,10:59:58.805000,0.8475109000000001,-10.0121212,8.0322018,-3.1636035,-3.0272317,4.178833999999999
52880,10:59:58.815000,0.459667,-9.384866699999998,2.2959406,-5.098822599999999,-2.9221630000000003,3.9222705
52881,10:59:58.824000,4.316559799999999,-13.4117413,3.2847035000000004,-6.1409578,-3.0504446,3.1366987
52882,10:59:58.838000,9.3561382,-18.2909145,5.6428905,-6.5551243,-3.8653381,1.8184526
52883,10:59:58.844000,14.0342073,-26.1866512,4.005327200000001,-7.6571240000000005,-4.1023536,0.9094858
52884,10:59:58.853000,19.4113522,-34.9682083,3.7515528,-9.086547900000001,-3.2227085,0.0261754
52885,10:59:58.863000,17.7402725,-37.5466537,3.9885685,-9.884337400000001,-1.4548659,-1.7270063000000002
52886,10:59:58.873000,11.843606900000001,-34.4726295,1.0557975,-9.1305304,0.4021628,-3.4227667
52887,10:59:58.885000,8.5469332,-27.8816738,3.5097487000000003,-7.927125900000001,1.8670163,-3.8088334
52888,10:59:58.891000,6.0570698,-22.772668799999998,-1.2880251,-8.0847292,2.7784264,-3.8748066
52889,10:59:58.906000,6.4113964999999995,-19.5813332,-7.9388312999999995,-11.8879728,5.4369102,-3.6597822
52890,10:59:58.911000,8.477503800000001,-17.5128326,-9.3752909,-11.8879728,5.4369102,-3.6597822
52891,10:59:58.921000,9.9211454,-15.542489100000001,-10.7662621,-14.017447500000001,6.3825288,-2.7508156
52892,10:59:58.931000,7.876585,-14.0964527,-15.889633199999999,-15.5568266,7.8253913,-1.6036116000000002
52893,10:59:58.940000,2.4443748,-12.8922224,-18.1640282,-16.6734886,9.203501699999999,-0.23527470000000003
52894,10:59:58.951000,-4.338107099999999,-12.8347626,-18.070657699999998,-16.743127800000003,9.810701400000001,1.2845567
52895,10:59:58.960000,-7.5916872,-14.7883482,-17.6564789,-15.2257385,9.291465800000001,2.5013992999999997
52896,10:59:58.970000,-5.934970900000001,-13.390193900000002,-19.1887016,-6.258244,5.1058211,3.6571553
52897,10:59:58.979000,-4.122638200000001,-8.7312784,-23.591449700000002,-6.258244,5.1058211,3.6571553
52898,10:59:58.989000,-3.7491589,-3.7898582999999997,-22.691268899999997,-0.33896509999999996,3.5090208,3.7683327000000006
52899,10:59:59.001000,-4.318954,0.581766,-16.6964455,7.904043700000001,2.0466106,2.5979159
52900,10:59:59.009000,-4.6445513,5.9996114,-14.3741693,7.904043700000001,2.0466106,2.5979159
52901,10:59:59.019000,-2.4443748,7.1631436,-8.4344101,6.606566900000001,0.8737504,2.4073262000000004
52902,10:59:59.028000,-0.6104951999999999,4.7834096,-11.4940681,6.606566900000001,0.8737504,2.4073262000000004
52903,10:59:59.037000,-1.2497194999999999,0.9169398000000001,-9.7200413,4.2840595,0.3777282,2.3352442000000004
52904,10:59:59.050000,-4.9797254,1.2521136,-11.2115641,2.7972145,0.3190852,2.4305388999999997
52905,10:59:59.057000,-7.8574319,2.8657362,-12.6576004,2.6738197999999995,0.5157837000000001,2.7029846
52906,10:59:59.076000,-5.5758562000000005,5.556703099999999,-12.1596279,3.318893,0.600083,2.74208
52907,10:59:59.086000,-1.9487964,5.1305537,-9.9259329,7.1380196,-1.3693449,2.6993194
52908,10:59:59.096000,0.4476965,3.5815718,-8.901259399999999,7.1380196,-1.3693449,2.6993194
52909,10:59:59.105000,0.7062590999999999,-0.9336985000000001,-9.820592900000001,8.401288000000001,-1.7285332999999998,2.2118495
52910,10:59:59.117000,-3.6462126000000006,3.3158267,-19.3323479,10.1117086,-0.754815,2.5624857000000003
52911,10:59:59.125000,-4.4673886,9.8325644,-9.6601877,10.1117086,-0.754815,2.5624857000000003
52912,10:59:59.136000,-0.32559740000000004,5.1616769,-3.4451079,8.1398373,-1.5037351,2.4024391
52913,10:59:59.144000,1.9559786,0.5027608,-8.8174658,8.1398373,-1.5037351,2.4024391
52914,10:59:59.154000,1.3742126000000001,-0.7325941999999999,-9.5261192,7.6413717000000005,-2.5495355,2.3328006
52915,10:59:59.166000,-0.4237555,-0.5003666,-6.1959276,7.6413717000000005,-2.5495355,2.3328006
52916,10:59:59.173000,-2.8824949,-0.30165640000000005,-5.7123194,7.9651303,-1.9545534,2.5551555
52917,10:59:59.183000,-3.7611291,-1.2425373,-7.110473599999999,7.939473599999999,-1.2813803999999998,2.7139802000000004
52918,10:59:59.193000,-3.0716287999999996,-2.0469543999999997,-6.8040285,7.326165700000001,-1.4793005,2.8373749
52919,10:59:59.202000,-2.473104,-1.5777111000000001,-7.0051331999999995,5.5754275,-3.1090877,3.184346
52920,10:59:59.212000,-2.2384822,-0.9983392,-6.7848759,5.5754275,-3.1090877,3.184346
52921,10:59:59.221000,-2.2313001,-0.1005521,-4.7067981,4.7434297,-3.4621675000000005,3.4897785000000003
52922,10:59:59.232000,-2.3246701,0.3974204,-0.435726,2.6371679,-3.9349768,3.9173837
52923,10:59:59.241000,-2.2432703999999997,-0.8451169,4.642157599999999,1.2028575000000001,-4.0779190000000005,4.0591044
52924,10:59:59.250000,-1.5465877000000001,-1.3981537,6.8902159,1.2028575000000001,-4.0779190000000005,4.0591044
52925,10:59:59.260000,-0.9241222,-2.3510051,7.002739,-0.7409140000000001,-4.2795043,4.2606897
52926,10:59:59.269000,-0.9935510000000001,-3.7347938999999997,6.2940855,-2.9864528,-4.4114509,4.326663
52927,10:59:59.282000,-1.0629798000000001,-5.8416009,7.7161802999999995,-6.705397099999999,-3.7223959000000004,3.5899602999999995
52928,10:59:59.289000,-1.4532180000000001,-7.141596300000001,4.824109099999999,-6.705397099999999,-3.7223959000000004,3.5899602999999995
52929,10:59:59.300000,-0.9121516,-10.7997789,-0.6607713000000001,-10.3559246,-2.8622982999999995,2.4415345
52930,10:59:59.309000,1.4939176,-18.221485100000002,-2.7508194,-10.3559246,-2.8622982999999995,2.4415345
52931,10:59:59.320000,5.2430763,-22.6625385,-6.2725387,-12.5171642,-2.5776353,1.2149183000000001
52932,10:59:59.332000,13.277671799999998,-31.1208897,-10.208437,-13.859844199999998,-1.6283514,0.8288515999999999
52933,10:59:59.340000,15.0253639,-37.805210100000004,-14.6111851,-13.184227900000002,0.6794954000000001,-0.37943879999999996
52934,10:59:59.352000,15.6789532,-33.91240689999999,-11.472520800000002,-11.299099900000002,2.2335353,-1.7893145000000001
52935,10:59:59.356000,14.3550158,-25.908935500000002,-11.4366102,-9.423745199999999,2.6489232000000005,-1.9139308999999998
52936,10:59:59.365000,14.8553829,-19.8758087,-12.293697400000001,-9.423745199999999,2.6489232000000005,-1.9139308999999998
52937,10:59:59.375000,13.495534900000001,-15.4443312,-16.483369800000002,-9.112203599999999,3.2915528,-1.2175452
52938,10:59:59.386000,10.876391400000001,-14.2544641,-17.8336411,-10.168999699999999,4.7710676,-0.44541210000000003
52939,10:59:59.397000,8.063324900000001,-13.8354969,-19.9045353,-12.6210108,8.5633154,-0.2083966
52940,10:59:59.406000,3.2320333,-13.5960875,-19.7632866,-12.6210108,8.5633154,-0.2083966
52941,10:59:59.415000,-2.0062547,-14.783559799999999,-19.9069328,-13.6619244,9.302461599999999,0.30961669999999997
52942,10:59:59.425000,-4.405141400000001,-18.032352399999997,-18.8511333,-13.685136800000002,9.2230492,1.4531553999999998
52943,10:59:59.434000,-5.044365900000001,-19.8997478,-17.1824455,-11.7902346,8.0734015,2.4904037
52944,10:59:59.445000,-4.8648086,-18.6141186,-15.6478291,-7.804953599999999,6.220038400000001,3.4616787
52945,10:59:59.453000,-3.8066169999999997,-14.237705199999999,-14.762013399999999,-2.8520625,4.6843247,4.2851243
52946,10:59:59.464000,-3.1578162,-8.582843800000001,-16.373241399999998,5.3567376,2.8517303,4.584447900000001
52947,10:59:59.473000,-2.7149078999999996,-4.271071900000001,-14.4124737,5.3567376,2.8517303,4.584447900000001
52948,10:59:59.482000,-2.1211715,-1.1826848,-13.821131699999999,7.400691,2.3141694,4.5099225
52949,10:59:59.493000,-2.2696054,2.3629756,-17.1010475,8.087303200000001,1.9781938000000001,4.2887892999999995
52950,10:59:59.502000,-1.7045983,3.1147225,-16.0452499,6.439189900000001,1.4626241000000002,3.6522684
52951,10:59:59.524000,-1.64714,1.019886,-14.5417557,6.0384626,1.0362403,3.1257031000000004
52952,10:59:59.531000,-3.1745751,0.387844,-11.8100891,6.0677843000000005,0.8370985000000001,3.0071952
52953,10:59:59.532000,-5.8320246,2.9902293999999996,-13.7181864,6.0677843000000005,0.8370985000000001,3.0071952
52954,10:59:59.541000,-7.237360499999999,5.6189499000000005,-14.5824547,6.6322231,0.29831579999999996,2.9888694
52955,10:59:59.561000,-6.7441759,9.3202257,-15.0612745,7.559516,-0.7267151999999999,2.9803174
52956,10:59:59.568000,-5.5327621,9.3058624,-14.864958800000002,7.559516,-0.7267151999999999,2.9803174
52957,10:59:59.579000,-3.5983305,2.7532134,-16.1386204,9.009708400000001,-1.4695268,1.7769138
52958,10:59:59.589000,-4.8887496,0.8187817,-21.273962,9.009708400000001,-1.4695268,1.7769138
52959,10:59:59.599000,-9.9283276,9.3609257,-25.102125199999996,8.1606073,-2.1512518,2.688324
52960,10:59:59.613000,-11.0296125,19.8782024,-12.2577858,5.8735294,-2.5226576,3.0695035
52961,10:59:59.619000,-0.7134414000000001,11.877123800000001,-4.575122400000001,5.8735294,-2.5226576,3.0695035
52962,10:59:59.629000,8.3721638,1.5082823,-6.4640665,4.299942,-4.1829877,1.9357386000000003
52963,10:59:59.638000,8.3937101,0.1867397,-8.611573199999999,4.1435604,-5.580646,0.5649581
52964,10:59:59.647000,3.6270595,1.1491673999999998,-7.5868988,3.8259106,-5.8982959,0.9424725
52965,10:59:59.658000,-0.1556164,1.5681346999999999,-6.6196828,3.990844,-5.0247593,2.1202197
52966,10:59:59.666000,-2.1259596000000003,2.5784442000000003,-6.7896638,3.9651878,-3.7443869,2.2607186
52967,10:59:59.679000,-2.5138037,2.3917048,-3.4690489999999996,1.3543519,-3.6038879999999995,1.3480867
52968,10:59:59.686000,-0.9313045,0.9313045,0.2968683,1.3543519,-3.6038879999999995,1.3480867
52969,10:59:59.695000,1.0869209,-0.411785,1.8793674999999999,0.1375094,-4.5311804,1.7146056
52970,10:59:59.708000,2.305517,-1.2473254999999999,3.7515528,-1.4556258,-5.3301916,2.2619402
52971,10:59:59.715000,2.8322186,-2.3773401,5.4346042,-3.4409361000000005,-5.387612799999999,2.5637076000000003
52972,10:59:59.727000,2.3797342999999995,-5.1736474,2.9231944,-5.4690065,-4.7523136,2.4561954
52973,10:59:59.734000,1.1180441,-8.669032099999999,-1.3909714,-7.2612839000000005,-3.8128037000000004,2.0725721999999998
52974,10:59:59.746000,-0.8475109000000001,-9.6027298,-5.6189499000000005,-9.9087715,-2.5360966,1.5826588
52975,10:59:59.754000,-1.9200671999999999,-9.9187508,-8.127965,-9.9087715,-2.5360966,1.5826588
52976,10:59:59.764000,-0.4093909,-13.1866961,-10.988912599999999,-11.5422239,-2.8598548999999998,0.6553661
52977,10:59:59.774000,3.2823095,-19.5142975,-13.7062149,-11.5422239,-2.8598548999999998,0.6553661
52978,10:59:59.783000,8.8605595,-25.0255146,-21.1997433,-11.6314096,-3.374203,-0.0153634
52979,10:59:59.794000,19.8614445,-31.942066200000003,-23.5244141,-11.021766699999999,-2.5385401,-0.38921259999999996
52980,10:59:59.803000,25.296047199999997,-34.503753700000004,-24.462900199999996,-11.021766699999999,-2.5385401,-0.38921259999999996
52981,10:59:59.813000,21.2045326,-28.621450399999997,-23.6369362,-5.359051200000001,1.1547482,-2.1094077
52982,10:59:59.822000,13.071779300000001,-25.7389565,-24.9848137,-5.359051200000001,1.1547482,-2.1094077
52983,10:59:59.832000,9.9474802,-26.3039627,-19.2820721,-2.9779007,3.0533156000000004,-1.92737
52984,10:59:59.844000,6.4544902,-25.1356411,-16.825725600000002,-3.6241955999999997,4.5132828,-1.3079531
52985,10:59:59.851000,4.2040377,-23.914651899999996,-21.3457832,-3.6241955999999997,4.5132828,-1.3079531
52986,10:59:59.862000,3.272733,-21.2931137,-22.7415447,-5.9357076,6.3226638,0.2741865
52987,10:59:59.870000,1.1659261,-16.272689800000002,-19.329954100000002,-5.9357076,6.3226638,0.2741865
52988,10:59:59.880000,-2.6047795,-9.980998,-18.544687300000003,-6.1739445,6.9054289,1.2943306
52989,10:59:59.893000,-4.601458099999999,-5.8248425,-17.644508399999996,-8.2411108,7.5541673,3.3883748
52990,10:59:59.899000,-0.023941,-9.5141478,-16.6581383,-8.2411108,7.5541673,3.3883748
52991,10:59:59.911000,1.6375635,-10.706410400000001,-16.093132,-8.3657274,6.168726,4.3559847000000005
52992,10:59:59.919000,-2.52338,-9.169398300000001,-14.9559345,-5.8562951,4.5584865,4.860558999999999
52993,10:59:59.928000,-9.617094999999999,-3.8114052000000003,-16.3157825,-1.7146324,4.0429167999999995,4.9436364
52994,10:59:59.939000,-15.652618400000001,0.23222759999999998,-17.323698,2.8387532,4.1565375,4.4085187999999995
52995,10:59:59.948000,-17.2566643,7.165537400000001,-17.8791294,6.233939599999999,3.9036396,3.7793282999999995
52996,10:59:59.962000,-11.656867,9.935509699999999,-14.2353106,8.0689774,1.3209033000000001,4.0859822999999995
52997,10:59:59.968000,-5.1233716,7.6252046,-12.116534199999998,8.0689774,1.3209033000000001,4.0859822999999995
52998,10:59:59.977000,-0.9145458000000001,5.4705157,-12.7605457,7.5570726,0.0722959,3.2393238999999996
52999,10:59:59.987000,-0.2082866,3.5360837,-11.884306,5.1502657,-0.32843140000000004,2.4647474
53000,10:59:59.997000,-1.9200671999999999,3.4283495000000004,-10.8045683,4.6530218,-0.2074802,2.6675546000000003
53001,11:00:00.010000,-3.7347938999999997,5.597403,-9.811017,4.6530218,-0.2074802,2.6675546000000003
53002,11:00:00.014000,-4.1010914,8.1495123,-8.130359599999998,4.3170462,-0.33820520000000004,2.8850224
53003,11:00:00.024000,-2.7699722999999996,7.5198641,-8.3673754,4.0494871,-1.1714246000000001,2.6773283
53004,11:00:00.034000,-1.2281727,6.310844400000001,-8.1710587,4.0494871,-1.1714246000000001,2.6773283
53005,11:00:00.044000,-0.13885770000000003,4.055603,-6.7489643,4.6725693,-1.5232828,2.2949271
53006,11:00:00.055000,-1.0821326,1.0222802,-6.9524631999999995,6.213170099999999,-1.8311586,1.6559626
53007,11:00:00.063000,-2.5114095,-2.6359026,-9.1526403,8.500248,-1.4267662,1.269896
53008,11:00:00.076000,-5.5231862000000005,-1.0486152,-18.5494785,10.8557425,-0.7193848,1.7402619
53009,11:00:00.084000,-7.4312825,6.9237337,-12.4301615,10.8557425,-0.7193848,1.7402619
53010,11:00:00.093000,-3.8185875,8.1590881,-4.1202440000000005,9.8087196,-0.9661742,2.35357
53011,11:00:00.103000,0.9169398000000001,3.9765980000000005,-3.3349794999999998,8.220471400000001,-2.0803914,2.2265102999999997
53012,11:00:00.112000,2.4443748,2.8992536,-5.1137948,5.748912799999999,-3.1909435,1.5215722
53013,11:00:00.124000,0.8499051,3.0357172,-6.6316533,4.805738,-2.6863692,1.9858296000000002
53014,11:00:00.132000,-2.106807,2.5952029,-7.060196899999999,4.805738,-2.6863692,1.9858296000000002
53015,11:00:00.144000,-5.5710678,1.989496,-5.6045852,3.277354,-1.3754534999999999,1.8208959999999998
53016,11:00:00.151000,-7.7856088,0.8068113,-2.2863643,3.277354,-1.3754534999999999,1.8208959999999998
53017,11:00:00.161000,-6.1025577,-0.9504572,-1.0988913999999999,1.0611368,-2.8464158,2.0811243000000004
53018,11:00:00.173000,-3.5528426,-2.252847,-0.8714519000000001,-0.2815438,-4.1548882,2.5856986
53019,11:00:00.180000,-1.9727374,-1.0366447,-0.1747692,-0.2815438,-4.1548882,2.5856986
53020,11:00:00.191000,-1.0390389000000002,1.9847078000000002,1.6878396,-3.1611599999999997,-4.4871984000000005,2.6516721000000003
53021,11:00:00.199000,-0.35911479999999996,2.9231944,3.5528426,-3.1611599999999997,-4.4871984000000005,2.6516721000000003
53022,11:00:00.209000,-0.265745,-0.6631654,4.0675735,-3.6987209,-3.5232539,1.5484504
53023,11:00:00.219000,-1.1252263999999998,-1.4915235,0.4788198,-3.6987209,-3.5232539,1.5484504
53024,11:00:00.229000,-1.3311188,-2.303123,-3.5169311000000003,-4.2326164,-2.7682252,1.3737431
53025,11:00:00.240000,-0.047882,-6.3204203,-5.5471268,-6.9326386,-2.2795334,1.093967
53026,11:00:00.248000,2.1858122000000004,-13.2920361,-7.165537400000001,-6.9326386,-2.2795334,1.093967
53027,11:00:00.258000,5.3268695,-18.7026997,-6.698688499999999,-10.4304504,-2.6533825,1.1929271000000001
53028,11:00:00.269000,14.7691946,-26.435638399999995,-1.8961263,-12.6173458,-2.1988993,1.1746011
53029,11:00:00.278000,19.0905437,-40.1586113,-23.450197199999998,-12.6173458,-2.1988993,1.1746011
53030,11:00:00.290000,18.920562699999998,-43.014770500000004,-16.6892624,-9.525148399999999,2.2824044,-1.7441105
53031,11:00:00.297000,9.957057,-32.0330429,-20.720924399999998,-9.525148399999999,2.2824044,-1.7441105
53032,11:00:00.307000,7.6036577,-27.110773100000003,-17.9844704,-3.3712976,2.3825862,-2.0788643
53033,11:00:00.317000,7.6443577000000005,-26.730112100000003,-15.0014229,-3.3712976,2.3825862,-2.0788643
53034,11:00:00.326000,7.4935288,-26.8641815,-16.6940517,-3.4213883999999997,3.2023666,-2.582217
53035,11:00:00.337000,7.3235478,-26.2704468,-18.410619699999998,-4.8618073,4.426539900000001,-2.6298645
53036,11:00:00.356000,5.3867221,-21.331420899999998,-20.335473999999998,-9.856237400000001,7.890142900000001,0.127579
53037,11:00:00.364000,1.8673970000000002,-16.5958939,-21.975431399999998,-9.856237400000001,7.890142900000001,0.127579
53038,11:00:00.374000,-3.2894917,-11.680808099999998,-21.2931137,-10.711447699999999,8.6683836,1.5093549
53039,11:00:00.385000,-8.4607449,-6.8710637000000006,-21.807846100000003,-10.332711199999999,8.7429094,2.6602242
53040,11:00:00.393000,-8.6283321,-5.9493356,-17.9078579,-8.8751888,7.8473821,3.6473815000000003
53041,11:00:00.407000,-4.436265000000001,-6.808816900000001,-14.4651451,-2.876497,3.629972,4.2814593
53042,11:00:00.413000,-2.5664737,-5.5064268,-13.1723309,-2.876497,3.629972,4.2814593
53043,11:00:00.422000,-4.2854371,-2.5066216,-14.635126099999999,0.8595514999999999,2.2518611,3.9247141000000005
53044,11:00:00.433000,-6.2725387,-0.2920801,-14.4675388,4.4282236,1.8389165,3.4433527
53045,11:00:00.441000,-7.388188400000001,3.6055129,-16.1194668,7.109919500000001,1.7790518,3.1208162
53046,11:00:00.454000,-6.8471227,5.4729095,-15.104369199999999,8.6651812,1.476063,3.0878294
53047,11:00:00.462000,-6.0498877,7.778427099999999,-14.903265,9.2821541,0.5121185,2.7347496
53048,11:00:00.474000,-4.5104818,7.3594593999999995,-12.1452627,9.2821541,0.5121185,2.7347496
53049,11:00:00.481000,-3.0979638,5.942153,-9.303467800000002,9.0805693,-0.1732717,2.2289536
53050,11:00:00.490000,-2.6143558,5.647678900000001,-9.341773,8.436717999999999,-0.35042249999999997,2.2521665
53051,11:00:00.499000,-3.1793633,7.4671940999999995,-7.6323872,8.436717999999999,-0.35042249999999997,2.2521665
53052,11:00:00.508000,-4.005327200000001,9.0951815,-10.055214900000001,7.4031348,-0.3760788,2.3987741000000002
53053,11:00:00.521000,-2.183418,8.0896597,-9.1574278,4.518631500000001,-0.5935467,2.2692707000000003
53054,11:00:00.529000,-0.3112328,3.1434517000000004,-8.6833963,4.518631500000001,-0.5935467,2.2692707000000003
53055,11:00:00.540000,-0.2394099,-2.0900483,-10.71838,5.6084142,-1.0443649,1.2760046999999999
53056,11:00:00.548000,-1.7237511000000003,-5.8200541,-13.5912991,5.6084142,-1.0443649,1.2760046999999999
53057,11:00:00.558000,-5.5064268,-2.1235654,-25.3894176,6.8386955,-1.0321475,1.6095368
53058,11:00:00.567000,-6.4257612,7.831097099999999,-12.4229784,6.863130099999999,-1.0895689,2.1886365000000003
53059,11:00:00.577000,-2.3988869,9.9307222,-3.6581831,5.8368773,-1.6063604,2.5246122000000004
53060,11:00:00.588000,3.5552367999999994,4.4386592,-4.5655465,4.6713476,-4.357695099999999,1.3603040000000002
53061,11:00:00.596000,6.0211587,2.0206193999999997,-8.1183891,4.6713476,-4.357695099999999,1.3603040000000002
53062,11:00:00.606000,4.555970200000001,1.4173065,-6.1241045,4.7312121,-4.7217703,1.3541954
53063,11:00:00.617000,1.4867353,0.2058925,-4.7690444,4.6970038,-3.9862895,1.9821644
53064,11:00:00.625000,-1.2042316000000002,-1.1802906000000002,-5.6381025000000005,4.3866844,-3.0235665000000003,2.393887
53065,11:00:00.639000,-3.1410575,-1.9368258999999999,-5.0036664,2.0421858,-2.5641963,1.7695832999999999
53066,11:00:00.645000,-4.060391399999999,-2.0708954,-3.9742040999999997,2.0421858,-2.5641963,1.7695832999999999
53067,11:00:00.656000,-3.6007245,-2.5449269,-3.2823095,0.43561140000000004,-3.9862895,2.3364658
53068,11:00:00.665000,-2.4635274,-2.3797342999999995,-1.2281727,0.43561140000000004,-3.9862895,2.3364658
53069,11:00:00.674000,-0.9121516,-2.4802864,0.2130748,-0.3035349,-4.6264753,2.7872839
53070,11:00:00.687000,0.3998145,-2.6143558,2.667026,-2.3963575,-4.742539900000001,2.7701797000000004
53071,11:00:00.694000,1.7596626,-5.7937188,3.270339,-2.3963575,-4.742539900000001,2.7701797000000004
53072,11:00:00.707000,1.5872875,-10.9913073,3.2176687999999998,-4.1556478,-3.9471941,2.6528937999999997
53073,11:00:00.714000,1.0390389000000002,-11.668836599999999,5.350810500000001,-4.1556478,-3.9471941,2.6528937999999997
53074,11:00:00.723000,2.305517,-13.9959011,4.3764124,-5.511767400000001,-3.4279589999999995,2.9448872
53075,11:00:00.733000,3.8951987999999997,-17.3739738,3.2775211000000004,-7.3944526,-3.1909435,2.8361533
53076,11:00:00.742000,4.5870929,-19.425718300000003,4.0316625,-8.6125164,-3.2373693,2.4561954
53077,11:00:00.753000,5.427422,-16.4713993,0.8259639999999999,-10.673574400000001,-2.0205266,1.6657363
53078,11:00:00.762000,6.8590932,-20.945970499999998,-4.2064314000000005,-10.673574400000001,-2.0205266,1.6657363
53079,11:00:00.771000,5.9158182,-24.5921822,-10.467,-10.4035721,-1.3302495,0.7812041999999999
53080,11:00:00.781000,4.4410529,-24.5682411,-18.6715755,-9.0217962,-0.4884779,0.18500020000000003
53081,11:00:00.790000,5.729078299999999,-22.4279175,-15.903998399999999,-8.583194699999998,0.6074134,-0.1778534
53082,11:00:00.802000,6.9596448,-22.739149100000002,-17.029224399999997,-7.9857693,1.8425817,-1.2016627
53083,11:00:00.811000,6.909369,-25.4564514,-25.3487186,-7.0645852,3.0533156000000004,-1.9432523999999998
53084,11:00:00.820000,7.826309200000001,-23.6824245,-17.354822199999997,-6.964403599999999,5.903610700000001,-1.3665961000000002
53085,11:00:00.829000,8.618755300000002,-20.9172401,-18.7074871,-6.964403599999999,5.903610700000001,-1.3665961000000002
53086,11:00:00.840000,8.8821058,-18.1807861,-20.9866695,-7.7829622999999994,7.3098211,-0.8742392
53087,11:00:00.859000,5.9182119,-7.0123148,-22.4638271,-7.6265812,8.221230499999999,-0.1314277
53088,11:00:00.869000,4.0699677,-7.1200494999999995,-21.424789399999998,-5.401811599999999,8.6085196,2.2313972
53089,11:00:00.878000,2.7364547000000004,-10.8117504,-18.1736031,-5.401811599999999,8.6085196,2.2313972
53090,11:00:00.888000,0.4548787,-13.3279476,-18.2262745,-4.3694501,7.672675099999999,2.8007231
53091,11:00:00.902000,-3.2392156,-12.5259247,-18.8918343,0.15217020000000003,5.6213913,3.4286919
53092,11:00:00.907000,-6.0139761,-8.8246479,-17.551137899999997,0.15217020000000003,5.6213913,3.4286919
53093,11:00:00.918000,-6.1025577,-4.771439099999999,-14.884112400000001,3.002465,3.1840408,3.7585589999999995
53094,11:00:00.927000,-4.0220861,-1.8650029,-14.6135788,3.002465,3.1840408,3.7585589999999995
53095,11:00:00.936000,-2.7508194,0.9336985000000001,-19.370651199999998,2.7520103,0.9861495000000001,4.0310044000000005
53096,11:00:00.945000,-2.5138037,0.43333190000000005,-14.7284946,2.7520103,0.9861495000000001,4.0310044000000005
53097,11:00:00.955000,-4.8863554,1.0941031,-15.3581429,3.4264050000000004,0.6538391,3.5252084999999997
53098,11:00:00.968000,-6.8997927,2.5401387000000004,-13.983930599999999,5.9150681,0.6147437,2.6345677000000003
53099,11:00:00.975000,-7.3163662,3.7156413,-11.369574499999999,5.9150681,0.6147437,2.6345677000000003
53100,11:00:00.985000,-6.0881929,3.9263220000000003,-9.5500603,7.7659883,-0.7035024000000001,1.8563261000000002
53101,11:00:00.994000,-5.5902205,5.0419722,-9.5093603,7.7659883,-0.7035024000000001,1.8563261000000002
53102,11:00:01.004000,-4.1753082,5.3053231,-7.929255,7.8796091,-1.074908,1.9479558000000001
53103,11:00:01.016000,-3.5743894999999997,5.942153,-6.9500684999999995,7.5766201,-1.4084401000000002,2.1715324000000003
53104,11:00:01.023000,-3.5217192,9.782286599999999,-7.4336767,7.1355758,-1.5574913000000001,2.1141112
53105,11:00:01.035000,-1.2233844999999999,8.3410397,-10.6992273,6.524711099999999,-1.4206573999999998,1.8380002
53106,11:00:01.043000,0.8570873999999999,1.6423517,-8.4368038,6.524711099999999,-1.4206573999999998,1.8380002
53107,11:00:01.053000,-0.7732939,-0.8977870000000001,-15.485031099999999,9.8380413,-1.1372163,1.3859603
53108,11:00:01.063000,-6.476037,4.603851799999999,-22.722391100000003,9.8380413,-1.1372163,1.3859603
53109,11:00:01.071000,-6.399426,14.8673534,-10.6561337,9.4397573,-0.5458993000000001,2.2741575000000003
53110,11:00:01.084000,1.0294625,9.9642391,-7.1535668,5.4300418,-2.9417107000000002,1.4091731
53111,11:00:01.091000,5.7075315,2.5712618999999997,-7.6587219,5.4300418,-2.9417107000000002,1.4091731
53112,11:00:01.102000,5.427422,1.5896816,-9.7200413,6.1105447,-3.0944269,1.387182
53113,11:00:01.110000,3.1841512,1.0055215,-7.8646145,6.1105447,-3.0944269,1.387182
53114,11:00:01.121000,1.3359071000000002,-0.9432749,-7.9029198,5.7953386,-2.9307151,2.5148382000000002
53115,11:00:01.135000,0.5410663,-2.5856267999999996,-7.9124966,3.9920659,-2.7584512,1.7683616999999998
53116,11:00:01.140000,0.1891338,-2.5377447999999996,-6.160016099999999,3.0757687000000002,-2.8928416,1.6742884999999998
53117,11:00:01.150000,0.5937365,-1.9679491999999998,-3.7491589,2.5076644,-3.4597239,2.2656054
53118,11:00:01.159000,1.5370114,-2.2001767000000005,-2.4036752999999997,2.5076644,-3.4597239,2.2656054
53119,11:00:01.168000,2.3581872,-2.8968594,-1.6351695,2.1154895000000002,-4.0119457,2.7042064999999997
53120,11:00:01.182000,2.1379302000000004,-2.8274305,-0.48839620000000006,0.9780593000000001,-3.8592296000000004,2.6834369
53121,11:00:01.188000,1.211414,-4.4386592,3.0309291000000003,0.9780593000000001,-3.8592296000000004,2.6834369
53122,11:00:01.199000,-0.265745,-6.5095544,6.3683023,-0.0811801,-2.6228395,2.9082353
53123,11:00:01.208000,-0.9743982,-7.0290742,7.471982000000001,-0.0811801,-2.6228395,2.9082353
53124,11:00:01.218000,-1.1012853,-6.966827400000001,7.831097099999999,-2.6309294999999997,-2.5104403,3.2771976
53125,11:00:01.227000,-0.8211759,-7.8837671,9.5500603,-2.6309294999999997,-2.5104403,3.2771976
53126,11:00:01.237000,-0.4046027,-7.948408099999999,8.3506165,-3.8037899,-2.4273627,3.1684634999999997
53127,11:00:01.249000,1.2856309,-10.093520199999999,4.687645400000001,-6.458607700000001,-2.0645089,2.2814879
53128,11:00:01.256000,3.7515528,-15.080428099999999,3.7515528,-6.458607700000001,-2.0645089,2.2814879
53129,11:00:01.268000,6.399426,-19.2772846,0.071823,-9.280802699999999,-2.1781299,1.3163216999999998
53130,11:00:01.276000,14.630336800000002,-26.2704468,-3.8568931000000006,-9.280802699999999,-2.1781299,1.3163216999999998
53131,11:00:01.285000,23.007288,-36.6344986,-6.8926105,-10.843394300000002,-1.9728792000000002,0.2619692
53132,11:00:01.298000,25.111701999999998,-38.4635925,-5.4824858,-8.679711300000001,0.5035664000000001,-2.7838022999999996
53133,11:00:01.304000,20.1439457,-32.1311989,-2.6646321,-8.679711300000001,0.5035664000000001,-2.7838022999999996
53134,11:00:01.315000,13.9982948,-26.665471999999998,-5.5519152,-7.3810134000000005,1.6996396,-3.1368821
53135,11:00:01.324000,12.4157963,-24.4724789,-11.0104599,-7.175762700000001,3.1498322,-3.3555717000000005
53136,11:00:01.334000,12.7725172,-23.356828699999998,-14.869747199999997,-8.4219265,4.267715,-3.3861148
53137,11:00:01.343000,13.260912900000001,-23.4980793,-17.728302,-10.362032899999999,5.304963099999999,-2.7434852000000003
53138,11:00:01.353000,11.1971998,-23.196422600000002,-22.772668799999998,-12.424312599999999,6.8186860000000005,-1.5926161
53139,11:00:01.364000,5.9541235,-21.700111399999997,-25.6407986,-14.792024599999998,9.072776800000002,1.2992176000000002
53140,11:00:01.372000,0.0023940999999999997,-20.522214899999998,-25.657556500000002,-14.792024599999998,9.072776800000002,1.2992176000000002
53141,11:00:01.382000,-5.1856179000000004,-19.8087749,-24.139698000000003,-13.4786654,8.8284302,2.7237542
53142,11:00:01.392000,-7.1128674,-17.1513233,-21.2452316,-9.952753999999999,7.671453,3.3260667
53143,11:00:01.401000,-7.6252046,-11.5443439,-18.410619699999998,-5.0499535,5.766776999999999,3.3737141999999998
53144,11:00:01.413000,-8.4391975,-5.116189,-19.760892899999998,4.346367400000001,2.6965706000000003,3.3260667
53145,11:00:01.421000,-9.4135962,0.6368303000000001,-20.1942215,4.346367400000001,2.6965706000000003,3.3260667
53146,11:00:01.431000,-8.9491405,4.9031138,-16.6270161,8.979166000000001,1.3343425,2.67855
53147,11:00:01.440000,-6.4856133,6.8255754,-15.305473300000001,8.979166000000001,1.3343425,2.67855
53148,11:00:01.449000,-3.5648129,5.4944562999999995,-15.666981699999997,8.988939300000002,0.47791000000000006,2.5331642999999997
53149,11:00:01.462000,-2.5640798,2.2959406,-12.968833,7.7122321,-0.20503670000000002,1.8758738000000001
53150,11:00:01.468000,-3.1985159,1.3861831,-10.4957294,7.7122321,-0.20503670000000002,1.8758738000000001
53151,11:00:01.481000,-4.0747561,1.9344318,-9.471055,7.091593700000001,-0.1121853,2.068907
53152,11:00:01.489000,-4.1250324,3.7635233,-9.7104654,7.091593700000001,-0.1121853,2.068907
53153,11:00:01.499000,-3.7108531000000005,6.2246566,-11.5730734,6.3756599000000005,-0.8452228999999999,2.574703
53154,11:00:01.517000,0.2609568,4.8648086,-13.1029024,6.3756599000000005,-0.8452228999999999,2.574703
53155,11:00:01.529000,1.4436415,-1.8051505,-11.1493177,7.8783875,-1.8714756999999997,1.1098495000000002
53156,11:00:01.537000,-1.9104908,-0.2753213,-18.662000699999997,7.8783875,-1.8714756999999997,1.1098495000000002
53157,11:00:01.550000,-4.9869075,6.763329,-18.1855736,7.8050838,-1.3730102,2.340131
53158,11:00:01.556000,-3.0261407000000005,10.651345300000001,-6.6101065000000006,7.8050838,-1.3730102,2.340131
53159,11:00:01.566000,3.8975928,4.5439997000000005,-4.7259512,5.351851,-3.2410345,1.5020247
53160,11:00:01.576000,5.8679361,1.5561641000000002,-9.5835772,5.351851,-3.2410345,1.5020247
53161,11:00:01.585000,4.1944609,2.3318522,-9.1550341,5.1368265,-3.9252027999999997,1.8734304
53162,11:00:01.596000,1.7907859,2.9662883,-6.0881929,5.1368265,-3.9252027999999997,1.8734304
53163,11:00:01.605000,0.4093909,2.6502673999999997,-4.3500776,5.4850192,-2.7608947999999995,1.6999447
53164,11:00:01.618000,0.2394099,0.8522992,-2.2408764,5.4850192,-2.7608947999999995,1.6999447
53165,11:00:01.625000,1.2784487,-1.3598481000000002,-1.4292768999999999,4.9584541,-3.4316242,2.0823462
53166,11:00:01.633000,1.9655551,-3.6773357000000004,-2.4922566,4.8436112,-3.8372383,2.4439781000000003
53167,11:00:01.643000,1.6519281000000003,-5.5231862000000005,-3.9167454,4.709221400000001,-3.7981431000000003,2.7005413
53168,11:00:01.652000,0.9313045,-6.583771700000001,-2.7699722999999996,4.709221400000001,-3.7981431000000003,2.7005413
53169,11:00:01.664000,0.2585627,-6.940492599999999,-0.4046027,3.3543231,-3.4743847999999997,3.256428
53170,11:00:01.672000,0.14604,-8.554115300000001,1.3957596,3.3543231,-3.4743847999999997,3.256428
53171,11:00:01.682000,1.7764213,-8.451169,4.137002900000001,2.3182964,-3.4658327000000004,3.8477452000000003
53172,11:00:01.694000,4.3117719,-7.850249799999999,6.4305490999999995,0.8412255999999999,-3.7443869,4.5282483000000004
53173,11:00:01.702000,6.085799199999999,-7.9316492,9.171792,-0.9705992,-4.0986886,5.0120535
53174,11:00:01.712000,7.421706200000001,-8.661849,12.9736214,-3.3627455000000004,-3.9032117999999993,5.0035014
53175,11:00:01.721000,8.568478599999999,-8.958718300000001,16.7419338,-3.3627455000000004,-3.9032117999999993,5.0035014
53176,11:00:01.731000,8.2883701,-9.298680300000001,16.6868687,-4.2875943,-3.6197705,4.8239069
53177,11:00:01.740000,6.4832196,-8.9754763,11.134952499999999,-5.229548,-3.1836131,4.4915967000000006
53178,11:00:01.749000,6.7154469,-10.146189699999999,8.3530102,-5.9222684,-2.5678616,3.6070645
53179,11:00:01.762000,7.711391900000001,-12.5977478,8.980263699999998,-6.809244199999999,-1.6637816000000003,0.8056388000000001
53180,11:00:01.769000,9.3369846,-16.102708800000002,11.6377144,-6.809244199999999,-1.6637816000000003,0.8056388000000001
53181,11:00:01.781000,10.4263,-20.6347389,9.0784216,-9.445735899999999,0.9812626,-1.4008045
53182,11:00:01.788000,12.8347626,-22.499740600000003,1.2425373,-9.445735899999999,0.9812626,-1.4008045
53183,11:00:01.798000,15.2144976,-24.5275421,-2.0804718,-11.4640331,2.39236,-2.8387802000000004
53184,11:00:01.809000,14.757225,-22.415945100000002,-7.8478556,-12.7480707,3.5310117999999995,-3.7685163
53185,11:00:01.818000,15.073246,-21.2380505,-13.057414999999999,-13.3454962,4.9677658,-3.6475649
53186,11:00:01.830000,14.738072400000002,-20.4982738,-18.860710100000002,-13.9258184,6.3874154,-3.2737157000000003
53187,11:00:01.838000,12.904192,-20.780778899999998,-24.4461422,-14.0675383,7.7386484,-2.7850238999999997
53188,11:00:01.847000,8.973081599999999,-21.3433895,-27.941526399999997,-13.8366318,9.020241699999998,-1.7966449
53189,11:00:01.857000,4.8193212,-21.752782800000002,-28.068414699999998,-13.082824699999998,10.0183954,-0.7190795999999999
53190,11:00:01.867000,0.0813994,-20.675435999999998,-23.6249657,-11.854986199999999,10.3849134,0.12024860000000001
53191,11:00:01.878000,-3.8760457,-17.5894432,-22.4542522,-8.043191,8.5156679,1.9467342
53192,11:00:01.886000,-5.6452851,-14.651884099999998,-19.3371353,-8.043191,8.5156679,1.9467342
53193,11:00:01.895000,-5.4896684,-9.9594507,-17.000495899999997,-3.243016,4.297036599999999,4.0468869
53194,11:00:01.905000,-3.5528426,-5.9325767,-14.826654399999999,-3.243016,4.297036599999999,4.0468869
53195,11:00:01.914000,-1.1036795,-4.9318433,-9.0784216,-0.8410958000000001,2.7320008,4.4512795999999994
53196,11:00:01.927000,-2.1882062,1.7572685000000001,-19.65555,3.5375824000000002,1.5701361,4.1617298
53197,11:00:01.935000,-4.213614,5.0707011,-24.4748726,3.5375824000000002,1.5701361,4.1617298
53198,11:00:01.945000,-5.9948235,3.9813862,-20.3450527,7.657254200000001,1.4467416000000002,2.7225322999999997
53199,11:00:01.954000,-6.4257612,2.2432703999999997,-16.8520622,7.657254200000001,1.4467416000000002,2.7225322999999997
53200,11:00:01.963000,-5.4441805,-2.8537657000000003,-6.9213395,9.1758642,0.7845641,2.2167362999999995
53201,11:00:01.976000,-5.669226200000001,4.2926192,-9.2891026,8.7739153,-0.5654469,2.9680998
53202,11:00:01.983000,-2.7627900000000003,5.872724099999999,-12.255391099999999,8.7739153,-0.5654469,2.9680998
53203,11:00:01.993000,-1.6686869,4.9893022,-6.8519106,6.594349900000001,-1.545274,3.0389602000000004
53204,11:00:02.002000,-3.0812049,6.7585410999999995,-11.7909365,6.594349900000001,-1.545274,3.0389602000000004
53205,11:00:02.011000,-1.2999957,-1.1012853,-9.2292509,6.2779217,-0.8476664,3.0756121
53206,11:00:02.021000,-3.8066169999999997,-1.7812095000000001,-15.9207573,7.3872523,-1.084682,2.5624857000000003
53207,11:00:02.031000,-8.0417776,6.5789833,-19.9548149,8.5943213,-1.079795,2.4794083
53208,11:00:02.042000,-6.399426,8.391316400000001,-13.4069529,7.384808500000001,-1.7835112000000002,3.2906364999999997
53209,11:00:02.051000,-3.1123283,9.801440199999998,-10.493334800000001,7.384808500000001,-1.7835112000000002,3.2906364999999997
53210,11:00:02.060000,1.9487964,6.540678,-7.273272,6.599236500000001,-2.8561897000000003,2.4867383999999997
53211,11:00:02.070000,4.828897,4.0819383,-7.888555499999999,5.656061599999999,-3.7639346,1.9357386000000003
53212,11:00:02.080000,4.6469455,3.5193252999999998,-7.4600115,5.3494077,-3.992398,2.0408072
53213,11:00:02.091000,3.272733,2.1187775,-3.5097487000000003,5.5155625,-3.2349257000000002,2.2521665
53214,11:00:02.099000,1.9392200000000002,-0.9887628,-0.9049693000000001,5.5155625,-3.2349257000000002,2.2521665
53215,11:00:02.109000,0.7110473,-4.1058793,-1.4484297,4.7458730000000005,-2.3503938,2.3621221
53216,11:00:02.119000,0.1316754,-5.5638857,-3.8018289,4.7458730000000005,-2.3503938,2.3621221
53217,11:00:02.128000,0.1005521,-5.4776978,-4.9366317,3.9297576000000003,-2.5165488999999996,2.5979159
53218,11:00:02.141000,-0.3902381,-4.2734666,-2.6766026000000003,2.6579373,-3.0431142,2.9448872
53219,11:00:02.158000,-1.2569019,-2.7412429,4.352471400000001,0.7605915,-3.071214,3.6999159
53220,11:00:02.167000,0.1101285,-2.133142,8.5636911,0.7605915,-3.071214,3.6999159
53221,11:00:02.176000,1.8243033,-2.7771543999999997,9.641036,-2.2619672000000004,-3.3131166,3.9149404000000003
53222,11:00:02.189000,2.3677638,-4.7834096,9.4949961,-2.2619672000000004,-3.3131166,3.9149404000000003
53223,11:00:02.196000,1.4580061000000002,-6.2246566,9.042511,-3.5215702000000006,-2.9844713,3.7060246
53224,11:00:02.207000,1.5801051000000002,-8.532568,6.3299971,-6.3547606,-2.1341474,3.1281464
53225,11:00:02.215000,1.4891294,-10.062397,1.1443793,-6.3547606,-2.1341474,3.1281464
53226,11:00:02.225000,4.0172977,-12.8587036,-2.7580017999999997,-8.5135565,-2.5238793,2.0799026
53227,11:00:02.235000,10.2874422,-19.3514996,1.503494,-8.5135565,-2.5238793,2.0799026
53228,11:00:02.244000,18.161634399999997,-27.6183243,-0.4237555,-8.8079929,-2.9331586,1.2821133
53229,11:00:02.258000,23.5938435,-33.337825800000005,-1.6519281000000003,-8.507448199999999,-0.7047241,-0.9463212
53230,11:00:02.264000,20.979488399999997,-26.4835205,0.7493529000000001,-8.507448199999999,-0.7047241,-0.9463212
53231,11:00:02.274000,15.9925804,-19.102514300000003,2.2097533,-5.178235099999999,2.1284664,-3.254168
53232,11:00:02.283000,13.986325299999999,-15.803445800000002,0.11252260000000001,-5.178235099999999,2.1284664,-3.254168
53233,11:00:02.292000,13.5098991,-16.919096,-6.3826675,-5.747561,3.1339498,-3.7037644
53234,11:00:02.305000,15.966244699999999,-22.5452271,-14.7715893,-7.542281599999999,4.306810400000001,-3.927341
53235,11:00:02.312000,19.1312447,-28.279094699999998,-20.9675159,-9.723068199999998,5.5138788,-3.9554407999999994
