,time,ax,ay,az,wx,wy,wz
0,10:45:20.456000,1.4699767,-4.6613107000000005,4.352471400000001,3.4862697,-4.1267881,3.2930801
1,10:45:20.465000,1.9009144,-0.8307523000000001,10.2994127,0.4722633,-4.2807260000000005,3.9039447
2,10:45:20.482000,2.7173021,0.9528513000000001,17.3356705,-2.1605637000000004,-3.7883692000000004,3.5740778
3,10:45:20.495000,5.08746,5.6931671999999995,21.0465221,-7.4482083,-2.0645089,2.0518028999999998
4,10:45:20.503000,10.5914927,5.1832242,14.5369682,-10.5257454,-1.4890745,0.8325168
5,10:45:20.512000,12.0830164,-0.9504572,1.79318,-10.5257454,-1.4890745,0.8325168
6,10:45:20.522000,31.939672499999997,-11.106224099999999,-12.717452999999999,-13.4065828,-0.5593383000000001,-0.2328312
7,10:45:20.531000,53.8911629,-32.8877335,-16.7874203,-16.9630375,-0.5520079000000001,-1.5803988000000002
8,10:45:20.543000,32.1120453,-29.2654648,-17.8934937,-15.949002300000002,4.7295289,-3.2101857999999996
9,10:45:20.551000,22.5715618,-35.5930672,-22.9881363,-15.949002300000002,4.7295289,-3.2101857999999996
10,10:45:20.561000,18.7577648,-34.2403984,-21.6402588,-13.2770796,7.1290054000000005,-3.2285117999999997
11,10:45:20.570000,11.628137599999999,-16.830514899999997,-23.9673214,-13.2770796,7.1290054000000005,-3.2285117999999997
12,10:45:20.580000,16.983735999999997,-10.536429400000001,-18.9445038,-11.1329441,6.5242491,-2.1949286
13,10:45:20.590000,14.4028978,-7.9316492,-22.6218395,-12.1433144,7.359912400000001,-0.9121128000000001
14,10:45:20.599000,13.4500465,-8.408075300000002,-16.2535362,-12.1433144,7.359912400000001,-0.9121128000000001
15,10:45:20.610000,-10.7471094,-16.1625614,-26.8354511,-14.6918421,7.030044999999999,2.8679183
16,10:45:20.618000,-13.6607265,-18.7960701,-24.8794746,-11.4872456,4.5487127,2.4500866
17,10:45:20.628000,-2.5736562999999997,-14.9224167,-24.2498264,-11.4872456,4.5487127,2.4500866
18,10:45:20.638000,-3.7323998999999994,0.0263351,-28.089960100000003,-5.432354900000001,1.7326262,2.0175943
19,10:45:20.648000,-1.9152790000000002,1.9152790000000002,-22.5069218,1.3103697,-0.3064403,2.1385457999999997
20,10:45:20.659000,-2.5640798,-0.4093909,-12.0303459,8.797127699999999,-1.8507063000000001,1.197814
21,10:45:20.667000,-3.1721807,1.8793674999999999,-10.258712800000001,8.797127699999999,-1.8507063000000001,1.197814
22,10:45:20.677000,-2.5090156,5.2335,-10.6202221,8.3157663,-1.7932848999999997,1.9601731
23,10:45:20.687000,-2.9926236,5.0084542999999995,-13.057414999999999,6.814261,-1.6759988999999997,2.8618095
24,10:45:20.696000,-9.648218199999999,4.5032997,-12.4469194,6.028688900000001,-1.170203,3.6290555
25,10:45:20.707000,-6.8183932,5.5638857,-8.6905785,6.1545272,-0.43960879999999997,3.9638095
26,10:45:20.716000,-7.5031056,11.977676400000002,-5.640496700000001,6.1545272,-0.43960879999999997,3.9638095
27,10:45:20.725000,-6.646017999999999,5.080277400000001,-7.5629577999999995,6.794713499999999,-0.6815111999999999,3.4787828999999997
28,10:45:20.735000,-7.2684841,-1.2999957,-9.4997845,6.794713499999999,-0.6815111999999999,3.4787828999999997
29,10:45:20.745000,-6.710659,3.5001721,-15.765139600000001,9.6889906,-1.4487573999999999,2.8605878
30,10:45:20.755000,-7.1368084000000005,16.9310665,-19.1887016,11.867334399999999,-2.2978593999999997,2.981539
31,10:45:20.764000,-1.237749,11.3935156,0.019152799999999998,11.0451097,-2.9013937000000003,4.0383347999999994
32,10:45:20.774000,-4.3955655,2.5856267999999996,-4.9964838,9.6095781,-3.3412163,3.2710888
33,10:45:20.784000,-3.2128806,2.1738417,-4.8887496,10.6773691,-2.6900343999999996,2.3780046
34,10:45:20.793000,-3.8377402000000003,1.5609524,-7.13202,13.308975199999997,-4.0143889999999995,1.9455124
35,10:45:20.803000,-6.696293799999999,-0.6104951999999999,-12.5857773,13.308975199999997,-4.0143889999999995,1.9455124
36,10:45:20.813000,-8.1830292,1.5154645,-9.597942399999999,13.216123600000001,-2.9649236,2.4830735
37,10:45:20.823000,-1.7883917,1.019886,4.4147182,10.225329400000001,-2.8060987,3.5117694999999998
38,10:45:20.832000,2.6646321,-0.3615089,7.0075269,6.5528110999999996,-4.1548882,3.2051156
39,10:45:20.841000,4.900720099999999,0.5674013000000001,8.946746800000001,3.6206601000000003,-5.1176105000000005,2.624794
40,10:45:20.852000,5.5351567,0.8977870000000001,14.829048199999999,0.9145293,-5.0943974999999995,2.9900911
41,10:45:20.861000,6.574194900000001,-2.2935464,18.415407199999997,-1.5362599,-4.7645307,2.9693217
42,10:45:20.872000,6.0427051,-3.7228234,13.2154245,-4.5747008000000005,-2.9869146,1.5728848999999998
43,10:45:20.881000,3.780282,-0.0646407,4.409930200000001,-6.5099200999999995,-3.1127529,1.1281754
44,10:45:20.890000,10.5412169,0.5650073,-0.411785,-8.5734215,-3.7236176,0.1825568
45,10:45:20.900000,22.6074734,-9.4423246,-8.4391975,-8.5734215,-3.7236176,0.1825568
46,10:45:20.910000,39.610363,-34.2739143,-9.576395,-9.811033199999999,-2.9270499,-1.7392236
47,10:45:20.920000,34.34574129999999,-34.8891983,-4.8097444000000005,-9.8342457,-0.6619635,-3.1038954
48,10:45:20.929000,26.770811100000003,-29.557544699999998,0.7062590999999999,-8.6149597,1.7570608,-2.7349331
49,10:45:20.939000,23.021654100000003,-31.999523200000002,-5.3220816,-10.278955499999999,4.8113847000000005,-4.409924
50,10:45:20.948000,17.6947842,-29.8328648,-17.998834600000002,-10.278955499999999,4.8113847000000005,-4.409924
51,10:45:20.958000,16.8640327,-22.9881363,-14.2424927,-12.0455761,5.6641517,-3.5315006
52,10:45:20.968000,9.3872614,-18.061080899999997,-19.6675224,-12.511055,5.7753290999999995,-2.5150217999999995
53,10:45:20.978000,4.582305,-13.900136900000001,-21.7862988,-12.9252214,6.5095882000000005,-1.7294497
54,10:45:20.989000,-2.0804718,-9.7056761,-16.0811615,-15.3271418,5.6873645999999995,0.5747319000000001
55,10:45:20.997000,-17.4410095,-11.0774946,-19.914114,-16.1261539,6.3116684,2.1947452999999997
56,10:45:21.007000,-17.745060000000002,-14.1850348,-19.2892532,-16.2275581,5.708134200000001,2.2485013
57,10:45:21.016000,-14.1802473,-14.2305231,-18.8152218,-16.2275581,5.708134200000001,2.2485013
58,10:45:21.026000,-10.8309031,-5.3244753,-24.980026199999998,-12.359561,3.0801938,2.4500866
59,10:45:21.036000,-6.0115819,0.019152799999999998,-22.353700600000003,1.2871568000000002,-0.8366708,0.8740556
60,10:45:21.045000,-6.3922434,3.9047748999999996,-14.0820894,1.2871568000000002,-0.8366708,0.8740556
61,10:45:21.055000,-5.654861,8.321887,-8.9706879,7.0476112,-1.2483938,0.08726189999999999
62,10:45:21.065000,-5.5926147,9.5093603,-6.9524631999999995,8.9901609,-0.9380744000000001,1.4213905
63,10:45:21.074000,-1.1659261,8.2093649,-8.022625,8.9901609,-0.9380744000000001,1.4213905
64,10:45:21.084000,1.8410618000000003,4.6948276,-6.4616723,7.6242676,-1.2373981,1.7146056
65,10:45:21.094000,-3.2799153,4.7498922,-10.048031800000002,4.828950900000001,-0.7108327,2.3816697999999996
66,10:45:21.105000,-9.593154,1.4604002,-8.022625,4.828950900000001,-0.7108327,2.3816697999999996
67,10:45:21.113000,-4.575122400000001,-2.4467689999999997,-10.498123199999998,5.2968731,-0.6473026999999999,2.6528937999999997
68,10:45:21.123000,-21.283538800000002,-4.8384733,-18.6141186,6.857021799999999,-0.9686176,2.3657873
69,10:45:21.133000,-6.9811921,2.6622376,-16.7323551,8.573551199999999,-1.6283514,1.9980468999999996
70,10:45:21.142000,-2.8058836,11.096648199999999,-4.2279787,9.4556398,-2.8146508,2.3841132999999997
71,10:45:21.153000,-4.6900395999999995,4.256707700000001,-7.6730865999999995,8.5405645,-3.3839767,3.3138494
72,10:45:21.161000,-3.4834137000000003,3.7156413,-10.3113832,8.341422999999999,-3.1689525,2.3987741000000002
73,10:45:21.171000,-2.1882062,2.475498,-6.792058,11.4433937,-4.8427215,0.2228739
74,10:45:21.181000,-6.6484122,3.2344275000000002,-5.5902205,11.4433937,-4.8427215,0.2228739
75,10:45:21.190000,-7.1248379,3.006988,-6.0738287,11.322443,-3.699183,2.5490467999999997
76,10:45:21.200000,-3.1937277,-0.2250453,-0.5362781,9.647451400000001,-4.5543933,1.9809424999999998
77,10:45:21.209000,-0.7972349,-6.3778790999999995,8.1495123,9.647451400000001,-4.5543933,1.9809424999999998
78,10:45:21.220000,-0.4093909,-9.1646099,7.7042098,6.1679664,-4.532401999999999,2.9363351000000004
79,10:45:21.229000,0.5458545,-6.4113964999999995,5.7817483,6.1679664,-4.532401999999999,2.9363351000000004
80,10:45:21.239000,3.0141702,-3.7898582999999997,9.5021782,2.6396112,-4.4847546,3.7182419
81,10:45:21.248000,8.127965,-1.9080968,13.6822739,-0.298648,-4.553171599999999,3.4677873
82,10:45:21.258000,7.0362558,-0.1987102,17.658872600000002,-1.6620981,-4.0974665,2.6370112999999997
83,10:45:21.269000,8.6283321,4.9246612,12.281726800000001,-2.7017898999999996,-3.0480012999999997,2.2521665
84,10:45:21.278000,17.6732368,3.1338751,6.4497018,-4.489179599999999,-2.1988993,1.4336078
85,10:45:21.287000,33.117569,-7.608446099999999,-0.9097575000000001,-9.081660300000001,-1.5330567,-2.5614476
86,10:45:21.297000,45.5549126,-21.103979100000004,-4.4985113,-9.081660300000001,-1.5330567,-2.5614476
87,10:45:21.307000,34.712036100000006,-26.718141600000003,-8.252458599999999,-11.2697783,0.4461451,-3.1723122999999998
88,10:45:21.316000,26.804330800000002,-30.2326775,-10.701621099999999,-12.8836832,3.3953998,-2.7385982999999996
89,10:45:21.327000,22.7774563,-36.07427979999999,-21.6402588,-14.135955800000001,5.7826595,-3.0660217
90,10:45:21.336000,18.192756699999997,-32.6962051,-20.651496899999998,-13.5079861,7.0202713,-2.6188688
91,10:45:21.345000,10.976942999999999,-22.6242332,-19.9069328,-13.5079861,7.0202713,-2.6188688
92,10:45:21.355000,9.5476656,-14.0677242,-19.708219500000002,-12.424312599999999,7.355025299999999,-1.358044
93,10:45:21.365000,3.0979638,-5.5183973,-19.9763603,-12.877574000000001,6.9506326000000005,-1.3189486000000001
94,10:45:21.384000,9.169398300000001,-1.7189629000000002,-11.982463800000001,-13.8964968,6.4008546,0.0664925
95,10:45:21.394000,-13.859437900000001,-9.851716,-25.6384048,-14.616095499999998,6.1247439,2.9045701
96,10:45:21.403000,-20.0553665,-9.4040203,-25.104520800000003,-11.641183900000001,4.348349099999999,2.2717142000000003
97,10:45:21.413000,-7.290030499999999,-2.1115949,-25.0231209,-5.095157599999999,1.9671981,1.3309824
98,10:45:21.423000,-3.006988,3.3230089999999994,-17.5798683,1.5669328000000002,0.0796262,0.7127873
99,10:45:21.433000,1.4220946,3.1314812,-7.7688502999999995,9.4996223,-1.3888927,0.8752773000000001
100,10:45:21.442000,2.0948365,3.3780732,-8.2428818,9.4996223,-1.3888927,0.8752773000000001
101,10:45:21.452000,-3.6246655,2.6622376,-5.0850654,6.821591400000001,-0.9319656999999999,2.4757431
102,10:45:21.462000,-5.1880121,1.7716331000000003,-12.054287,6.821591400000001,-0.9319656999999999,2.4757431
103,10:45:21.471000,-5.365175700000001,2.5066216,-10.2156191,5.901629,-1.1347728000000001,3.0206343999999996
104,10:45:21.481000,-6.1025577,6.684323299999999,-8.9754763,6.119097200000001,-1.2447286,3.1538029
105,10:45:21.491000,-5.669226200000001,6.8734574,-5.5782499,6.7727222000000005,-1.0663559,3.3431709
106,10:45:21.501000,-8.0537481,2.7675784,-8.3530102,7.2589707,-1.1665378,2.9827607000000005
107,10:45:21.510000,-9.593154,0.1915279,-13.2297897,8.9645052,-1.2337329,2.4623039
108,10:45:21.520000,-8.1543007,3.3158267,-19.4400826,10.9485931,-2.3149636,2.8618095
109,10:45:21.530000,-6.1959276,12.501983599999999,-11.345634500000001,11.3615379,-3.360764,2.4354259999999996
110,10:45:21.539000,-3.6414242,5.2215295,-2.4946511,9.7048731,-3.649092,2.5869202999999996
111,10:45:21.550000,-3.2894917,1.211414,-5.5782499,10.090939500000001,-3.9972849000000004,2.0982287
112,10:45:21.559000,-3.610301,0.5721896,-5.8775125,10.090939500000001,-3.9972849000000004,2.0982287
113,10:45:21.568000,-4.6804628,0.5961305,-6.253386,9.978540400000002,-3.9300900000000003,2.5123949
114,10:45:21.578000,-7.9388312999999995,1.6543223000000002,-6.0379171,9.978540400000002,-3.9300900000000003,2.5123949
115,10:45:21.588000,-9.9786043,1.3790008999999999,0.0526702,9.0793476,-2.9844713,3.5325388999999996
116,10:45:21.599000,-6.6053185,-0.45248469999999996,7.524652499999999,7.153902099999999,-3.0663271,4.3657584
117,10:45:21.607000,-2.4994389999999997,-2.3438227000000005,11.431821800000002,4.6090393,-3.6307662000000005,4.386528
118,10:45:21.618000,-1.0246743,-1.1922611,12.6001415,-1.0866635,-4.1512227,3.8538537000000006
119,10:45:21.626000,0.1747692,1.0964973,17.838430399999996,-1.0866635,-4.1512227,3.8538537000000006
120,10:45:21.637000,1.1180441,-0.8451169,19.490358399999998,-3.5826568999999995,-3.4756063999999998,3.9613662000000005
121,10:45:21.647000,3.2487918999999996,-3.5312957999999997,17.7426662,-5.4506807,-2.9612583999999997,2.8214924
122,10:45:21.655000,8.76719,0.5841601,12.8443403,-7.6730065000000005,-2.3784935000000003,1.197814
123,10:45:21.666000,22.7008438,3.6414242,-9.6625834,-15.3161459,-0.9808349000000001,-1.0513899
124,10:45:21.675000,67.6572342,-20.7472591,-20.148735000000002,-15.3161459,-0.9808349000000001,-1.0513899
125,10:45:21.684000,42.3037224,-27.527347600000002,-27.5417118,-17.3136749,0.7283645999999999,-3.5437179
126,10:45:21.694000,17.7378788,-31.6356201,-26.7540531,-17.2525883,4.856588400000001,-4.2523212
127,10:45:21.704000,21.8772736,-35.174099,-30.931755100000004,-18.178659399999997,7.7508655,-1.4643344999999999
128,10:45:21.715000,14.5585136,-26.9671288,-35.2459183,-15.0265961,8.917616800000001,-1.299401
129,10:45:21.723000,11.2642345,-19.9835415,-24.3743191,-15.0265961,8.917616800000001,-1.299401
130,10:45:21.733000,5.2981405,-11.0918589,-25.4396935,-8.9155054,7.3440299,1.1403927
131,10:45:21.743000,1.9392200000000002,-7.060196899999999,-21.0393391,-8.9155054,7.3440299,1.1403927
132,10:45:21.752000,-3.0405054,-8.640301699999998,-16.859243399999997,-8.0028734,6.0380011,1.6327497
133,10:45:21.763000,-3.1626046000000003,-8.087266,-10.663315800000001,-7.0499249000000015,4.8956838,2.3425743999999997
134,10:45:21.772000,-10.256319,-3.7587349000000003,-16.1817131,-6.6687449999999995,3.990382,2.8654747000000005
135,10:45:21.782000,-13.4500465,1.065374,-23.0120773,-4.1397653,1.3282337,3.1501377
136,10:45:21.791000,-5.719501999999999,1.8865498,-24.757375699999997,-4.1397653,1.3282337,3.1501377
137,10:45:21.800000,-5.2885642,5.7697778,-19.5047226,-0.149597,-0.5776642,1.288222
138,10:45:21.810000,-4.3093777,7.4576173,-16.0596142,3.8161367999999993,-1.2911541000000002,0.8264082
139,10:45:21.820000,-3.7060647000000007,5.5423384,-9.471055,6.419642400000001,-1.6650033,0.9180379000000001
140,10:45:21.831000,-4.405141400000001,6.4018202,-9.310649900000001,8.3499746,-2.0229702,0.8606166
141,10:45:21.840000,-5.1497064,8.1806355,-7.8717966,8.0152206,-2.0620654,1.3175435
142,10:45:21.853000,-5.3555989,11.2091703,-9.023358300000002,8.0152206,-2.0620654,1.3175435
143,10:45:21.858000,-4.8336854,11.3935156,-6.0307345,7.4813250999999985,-2.1158216,1.5411198999999998
144,10:45:21.868000,-5.2502584,12.671964599999999,-4.426688700000001,7.3628178,-2.1536951,1.3725213
145,10:45:21.878000,-2.6742082000000003,7.711391900000001,-3.2583685,7.419017299999999,-2.0840566000000003,1.4213905
146,10:45:21.888000,-4.7283449,3.7707055,-3.3134327000000003,7.6951279999999995,-2.4114802,1.0536499
147,10:45:21.898000,-5.8799067,3.1793633,-13.8259201,9.9944229,-2.3870456,0.6199359
148,10:45:21.907000,-5.9206061,6.466460700000001,-17.7594242,9.9944229,-2.3870456,0.6199359
149,10:45:21.917000,-2.1906002,2.2049651000000003,6.2055039,10.0884962,-2.963702,1.0878583
150,10:45:21.927000,-2.6909671000000004,-0.5051548,-8.6786079,9.7244205,-3.5537972,1.392069
151,10:45:21.936000,-3.2823095,-0.17955739999999998,-21.295507399999998,10.232660300000001,-3.4560587,1.1281754
152,10:45:21.946000,-2.9160123,-3.2200627,-17.8097,11.084205599999999,-4.9221339,-0.07767160000000001
153,10:45:21.956000,-5.362781,-6.617289100000001,-4.8408675,11.084205599999999,-4.9221339,-0.07767160000000001
154,10:45:21.966000,-4.2806487,-2.9160123,2.3821282000000004,11.8942118,-4.4383292,0.8374037
155,10:45:21.976000,-1.0581916999999998,-0.7900524999999999,6.993162599999999,9.5093966,-4.1084623,2.3547919
156,10:45:21.985000,2.5880208,-1.8003622,12.535500500000001,6.5980148000000005,-4.962451000000001,2.8801354999999997
157,10:45:21.996000,4.4913292,-0.3782676,16.6341972,2.9572608,-5.6869364000000004,2.2375057000000003
158,10:45:22.004000,4.1681261,2.6646321,17.5655022,2.9572608,-5.6869364000000004,2.2375057000000003
159,10:45:22.014000,6.993162599999999,3.1338751,20.1607056,-0.2143486,-4.6142582999999995,2.4635257999999998
160,10:45:22.024000,7.2756662,3.9550512,16.8329086,-2.8777188999999996,-3.1811697,2.3291353999999997
161,10:45:22.033000,14.4052916,6.7848759,9.3752909,-5.8452991999999995,-2.019305,1.7744703000000002
162,10:45:22.043000,32.6387482,1.3813950000000002,-1.6184107,-9.9014416,-1.441427,0.2864038
163,10:45:22.053000,56.57015989999999,-24.9943905,-9.4758434,-13.7144585,-0.9515134,-1.7966449
164,10:45:22.062000,42.69396210000001,-33.847766899999996,-15.6957111,-16.167692199999998,0.3911672,-2.811902
165,10:45:22.072000,23.9960518,-34.4391136,-20.3163223,-17.5152607,4.602469,-0.7923833
166,10:45:22.082000,15.0756397,-31.377058,-25.9472427,-17.2000542,8.7673445,0.6529226
167,10:45:22.092000,12.5929594,-26.4691563,-29.2103977,-16.1554756,9.797262199999999,-0.5358201
168,10:45:22.101000,14.9870577,-25.104520800000003,-24.2953148,-13.6423769,8.5926371,-0.27559179999999994
169,10:45:22.111000,4.409930200000001,-13.845072699999998,-27.036558199999998,-12.6332283,8.510781300000001,0.7726521
170,10:45:22.121000,2.0708954,-5.5447326,-27.400459299999998,-12.6332283,8.510781300000001,0.7726521
171,10:45:22.130000,-5.1951947,-9.763135,-20.2564697,-12.8800173,7.3061562,1.6034281000000001
172,10:45:22.140000,-2.0900483,-11.5180092,-16.600681299999998,-12.5892458,5.9365973,1.9565078999999999
173,10:45:22.149000,-10.3832064,-10.036062199999998,-24.2354622,-11.8048954,5.160799,3.4054792000000003
174,10:45:22.160000,-4.7498922,-5.6428905,-29.215187100000005,-8.649169,3.3953998,3.8391931000000006
175,10:45:22.169000,-5.302928400000001,6.2342329,-29.579090100000002,-1.6120071000000002,0.9360586,2.9827607000000005
176,10:45:22.179000,-5.2909579,14.216157899999999,-24.4485359,5.3713984,-1.1054513000000001,1.3212087
177,10:45:22.188000,-2.5880208,11.5970144,-12.0399227,9.382336599999999,-1.870254,1.197814
178,10:45:22.198000,-2.8394009999999996,10.251530599999999,-8.7624006,11.9015427,-2.1255952999999996,0.9571332
179,10:45:22.208000,-3.2392156,7.665903999999999,-9.6099119,12.569828,-2.0889435,1.2857785
180,10:45:22.217000,-4.8504438,7.7592740000000004,-12.7030878,10.7189083,-2.3809369,1.9076388
181,10:45:22.228000,-5.626132,11.6233492,-9.7774992,8.2937756,-2.3565023,2.3364658
182,10:45:22.237000,-3.9358983,17.1872349,-9.3968382,8.2937756,-2.3565023,2.3364658
183,10:45:22.247000,-2.0086489,9.253191900000001,-4.8719912,7.2491965,-1.9301188000000002,2.2265102999999997
184,10:45:22.266000,-5.5207915000000005,5.9636998,-18.372314499999998,7.9590216,-1.8788061000000003,1.3383128999999998
185,10:45:22.276000,-6.2246566,17.8432178,-1.7117807,10.790990800000001,-2.8745155,1.7036098999999998
186,10:45:22.285000,-1.2521136,6.3084502,-1.5561641000000002,9.4446449,-3.0137928,2.1923017999999996
187,10:45:22.295000,-2.8489776,3.978992,-12.8323689,9.119664199999999,-2.8891763999999998,2.0017118000000003
188,10:45:22.305000,-0.4931844,-0.0335174,-8.5469332,10.4024801,-3.5403580999999997,1.5398983
189,10:45:22.314000,-2.9686825,-3.299068,-4.060391399999999,11.3383255,-5.397386599999999,0.4354548
190,10:45:22.325000,-6.7513585,-4.9294496,-2.0517426,12.189870800000001,-2.1561387,2.3633439999999997
191,10:45:22.334000,-3.8377402000000003,-5.9373651,-0.3184151,12.189870800000001,-2.1561387,2.3633439999999997
192,10:45:22.343000,-1.1276205,-4.8360796,-3.102752,9.4250965,-4.0766973,3.098825
193,10:45:22.353000,0.5697955,-3.6773357000000004,1.5322232,8.031103100000001,-4.814621900000001,3.3211798999999997
194,10:45:22.363000,0.5865541999999999,0.2920801,5.776960400000001,8.031103100000001,-4.814621900000001,3.3211798999999997
195,10:45:22.373000,1.4268829,2.3653696,15.092398600000001,5.320086,-5.0785151,4.151955600000001
196,10:45:22.382000,2.619144,3.6725476,21.144679999999997,2.1203762999999998,-4.5482845,4.534357099999999
197,10:45:22.392000,5.8775125,7.6970277000000005,23.4166794,-2.8154106,-2.9527063,2.7298627
198,10:45:22.402000,10.7902031,12.068652199999999,18.8056469,-2.8154106,-2.9527063,2.7298627
199,10:45:22.411000,17.9198303,11.4437923,13.5553865,-5.9027209,-2.8305333,1.6229758
200,10:45:22.421000,33.4479523,5.891877200000001,2.1427186000000003,-9.097542800000001,-2.4053714,0.27540820000000005
201,10:45:22.430000,51.6742287,-12.992774,-11.0248251,-14.006452599999998,-1.3363581,-1.2908488999999999
202,10:45:22.442000,45.396900200000005,-21.537311600000002,-18.6212997,-23.253723100000002,4.7307505999999995,-1.3861438
203,10:45:22.450000,28.377252600000002,-22.332153299999998,-19.3850174,-23.253723100000002,4.7307505999999995,-1.3861438
204,10:45:22.459000,18.3124619,-23.9505634,-34.79822539999999,-23.0008259,10.058712,-1.6146072
205,10:45:22.469000,4.6804628,-32.7704239,-39.7276764,-21.5518532,9.7166281,-1.0269554
206,10:45:22.479000,14.8314419,-28.698062899999996,-32.1647148,-21.5518532,9.7166281,-1.0269554
207,10:45:22.490000,4.3476834,-13.672698,-28.3700695,-15.108451800000001,8.7978868,0.1886654
208,10:45:22.499000,4.8336854,-10.095913900000001,-26.3614216,-15.108451800000001,8.7978868,0.1886654
209,10:45:22.508000,1.8266973000000002,-10.584310499999999,-21.9682503,-11.5275631,5.6861429,2.182528
210,10:45:22.518000,-5.5997968,-15.6047363,-22.516498600000002,-11.5275631,5.6861429,2.182528
211,10:45:22.527000,-7.424099900000001,-10.818931599999999,-27.105985600000004,-8.6418381,4.0991163,3.1990068
212,10:45:22.537000,-6.782482099999999,-4.2471309,-27.484254800000002,-3.2625637000000003,1.7949343,2.5856986
213,10:45:22.547000,-8.7647963,1.6950218999999997,-26.248897600000003,2.6652677000000002,-0.2978882,2.2399492000000003
214,10:45:22.557000,-4.6158223,2.3917048,-15.619099599999998,9.012152699999998,-1.2545023000000002,1.8221177
215,10:45:22.566000,-4.295013,4.9964838,-10.6465569,9.012152699999998,-1.2545023000000002,1.8221177
216,10:45:22.577000,-5.5782499,6.4999781,-10.3113832,10.103157000000001,-1.3754534999999999,1.9809424999999998
217,10:45:22.586000,-5.2191353,5.362781,-12.044711099999999,9.218625099999999,-1.0272607,2.8471487
218,10:45:22.595000,-7.2014489,5.5207915000000005,-5.855965599999999,8.0115557,-1.0663559,2.9412220000000002
219,10:45:22.606000,-7.452829400000001,11.4174566,-9.5811834,6.6138973,-0.9710610999999999,3.2417674
220,10:45:22.615000,-5.556703099999999,4.7690444,-11.1157999,6.6138973,-0.9710610999999999,3.2417674
221,10:45:22.624000,-5.3723574,0.059852499999999996,-11.8723364,6.9791946,-1.2789369,2.6590022999999996
222,10:45:22.634000,-6.1743803,0.9217280000000001,-16.2415657,10.0103054,-1.6259081,1.8208959999999998
223,10:45:22.644000,-7.5270467000000005,5.2670169,-20.8382359,12.1251192,-2.322294,2.164202
224,10:45:22.655000,-3.4139847999999997,13.672698,-9.7104654,12.3719082,-2.9551497,3.1220379
225,10:45:22.663000,0.0359115,8.585238499999999,-10.3879938,10.5637484,-3.4707196000000002,3.4128093999999995
226,10:45:22.673000,0.1197049,6.600530099999999,-11.9010649,11.7512693,-3.970407,1.9113040000000001
227,10:45:22.683000,-0.6942885999999999,6.3539381,-12.628871,11.7512693,-3.970407,1.9113040000000001
228,10:45:22.693000,-2.3438227000000005,4.8672032,-12.0973806,12.425663900000002,-4.4334421,2.1617584
229,10:45:22.702000,-2.8034897,1.8961263,-9.008994099999999,12.514850599999999,-3.8433471,2.4293172000000003
230,10:45:22.712000,-1.5968639,-3.3661027000000003,2.4012811000000003,11.3053389,-3.5024846,2.5148382000000002
231,10:45:22.721000,-0.3303856,-6.6891122,5.906241400000001,8.6651812,-3.5806751000000006,2.9277827999999997
232,10:45:22.731000,1.9128848000000003,-5.063519,2.1211715,4.9376845000000005,-3.6576443,3.2466543
233,10:45:22.741000,1.4651883999999997,-2.640691,6.8471227,-1.9174395,-5.0797372,3.7548937999999996
234,10:45:22.750000,6.7776933,-0.9552454,12.4110079,-1.9174395,-5.0797372,3.7548937999999996
235,10:45:22.760000,6.365908599999999,-1.3478776000000001,22.1837177,-2.9766787999999997,-5.2287879,3.1977851000000004
236,10:45:22.771000,6.2246566,5.1066127,16.6509571,-3.4018406999999997,-3.8201342000000005,2.696876
237,10:45:22.779000,12.580988900000001,7.819126600000001,15.7507763,-5.296742900000001,-2.3784935000000003,2.1458758999999996
238,10:45:22.789000,22.262723899999997,0.4931844,3.6462126000000006,-11.383399,-2.0168614,-0.9255518
239,10:45:22.799000,41.5783119,-10.5962811,-5.1880121,-11.383399,-2.0168614,-0.9255518
240,10:45:22.808000,51.1211929,-28.077989600000002,-15.276743900000001,-15.5666008,-1.034591,-1.6866893
241,10:45:22.818000,30.5750351,-28.396406199999998,-16.9861298,-19.1902504,1.7778300999999999,-1.132024
242,10:45:22.828000,20.3378677,-32.1288071,-30.558275199999997,-19.6129704,5.8926153,-0.5174942
243,10:45:22.838000,18.4872303,-35.600246399999996,-27.6350822,-19.0876255,7.6812271999999995,-0.6250064000000001
244,10:45:22.847000,13.457228699999998,-26.337480499999998,-23.8021297,-17.616663,7.7252092,-0.9096693000000001
245,10:45:22.857000,10.8739967,-18.0778408,-22.9929237,-14.8995361,7.8143953999999995,-0.13875810000000002
246,10:45:22.867000,8.3458281,-14.946357699999998,-23.670454,-13.263640400000002,7.8938079,0.4562242
247,10:45:22.876000,-2.0230136,-13.983930599999999,-26.392543800000002,-12.369334199999999,7.049592999999999,1.0988539
248,10:45:22.887000,-0.9049693000000001,-10.361659,-25.6479797,-9.7584991,5.7289033,3.644938
249,10:45:22.896000,-9.018569900000001,-11.7861481,-26.397331199999996,-9.7584991,5.7289033,3.644938
250,10:45:22.905000,-7.7903975999999995,-7.7473035,-22.3656693,-5.8660688,3.6263068,2.9265611000000002
251,10:45:22.915000,-10.3664484,-0.26813909999999996,-24.965662,-0.5833109999999999,1.2879167,2.046916
252,10:45:22.925000,-7.708998200000001,2.0517426,-20.8454189,4.4404407,0.28609850000000003,2.3572352000000003
253,10:45:22.935000,-6.6053185,3.0261407000000005,-15.090004,7.8967133,-0.4420522,2.2094058999999997
254,10:45:22.944000,-11.1421356,7.876585,-14.5585136,10.4037018,-0.9246353999999999,1.5802153
255,10:45:22.954000,-4.034056700000001,8.958718300000001,-10.150979,10.347502699999998,-0.8916487,2.2399492000000003
256,10:45:22.964000,-3.3182209000000005,7.874190799999999,-10.256319,9.164868400000001,-1.3339148,2.4354259999999996
257,10:45:22.973000,-5.037183799999999,10.3042011,-8.606784800000002,8.2131414,-1.5574913000000001,2.3328006
258,10:45:22.983000,-4.2064314000000005,13.232184400000001,-8.807889,6.9352121,-1.5477173,2.5759249
259,10:45:22.992000,-4.400353400000001,5.9948235,-7.366642,5.530223400000001,-1.3742318,2.6357896
260,10:45:23.003000,-4.6086402,2.8537657000000003,-12.2099037,9.162425,-1.5379436000000002,1.3676343999999998
261,10:45:23.012000,-3.4905961000000003,2.3222756,-16.2415657,9.162425,-1.5379436000000002,1.3676343999999998
262,10:45:23.021000,-7.321154099999999,13.416528699999999,-19.0187206,11.499593699999998,-2.0144181,1.3309824
263,10:45:23.031000,-0.33756790000000003,7.606051400000001,-2.303123,11.3884163,-2.4615709999999997,2.5038428
264,10:45:23.041000,-0.6727418000000001,1.2018377,-10.6824694,10.1153736,-3.1652873,2.4830735
265,10:45:23.051000,-0.7541412,1.8793674999999999,-11.1493177,11.101309800000001,-3.1591785,1.5350113
266,10:45:23.060000,-2.2600293,1.1946553,-11.3935156,10.9681416,-4.0828061,1.6388582999999999
267,10:45:23.070000,-2.7388489,1.2305667,-10.440665199999998,10.8239775,-4.1866527,1.8147874
268,10:45:23.080000,-2.6957552000000002,1.9631610000000002,-2.8465835999999998,10.2375469,-3.6808568999999998,2.1495411
269,10:45:23.089000,-0.8427228000000001,1.6615044999999997,3.6988826,8.0995197,-3.7370565000000004,2.8166056
270,10:45:23.100000,1.4580061000000002,2.4467689999999997,6.0666461,5.541218799999999,-4.2636218,3.1342552
271,10:45:23.109000,3.1075404,4.7570739,10.3401117,2.6982543,-4.942903500000001,3.0291865000000002
272,10:45:23.118000,4.060391399999999,6.2438097,17.7833652,-2.1666722000000003,-4.2685084,2.299814
273,10:45:23.129000,3.8616812000000005,2.7053316,20.2468948,-3.5386746,-2.953928,1.7072752
274,10:45:23.138000,3.1147225,2.9447415,22.6242332,-3.5386746,-2.953928,1.7072752
275,10:45:23.157000,4.6397634000000005,0.7972349,11.4437923,-5.516654,-1.8763626,1.4812551999999999
276,10:45:23.167000,7.646751400000001,-2.3581872,-6.6053185,-15.755969,0.600083,-0.027580700000000003
277,10:45:23.177000,29.162515600000003,-17.4410095,-16.4713993,-15.755969,0.600083,-0.027580700000000003
278,10:45:23.186000,63.0509834,-39.4882622,-27.687751799999997,-18.7137775,0.32519390000000004,-0.8412525
279,10:45:23.196000,32.2892113,-28.0995369,-23.6177845,-18.7797508,2.2494178,-1.0587204
280,10:45:23.206000,17.352428399999997,-28.846496600000002,-25.0231209,-15.5385008,6.172390900000001,-0.7557315
281,10:45:23.216000,17.7187233,-35.0472107,-33.9674721,-13.4627829,8.5816412,-1.3751482
282,10:45:23.225000,15.9734268,-27.6997223,-30.5391235,-13.4627829,8.5816412,-1.3751482
283,10:45:23.235000,12.061469099999998,-13.615240099999998,-27.951101300000005,-11.4322681,7.601814699999999,-0.130206
284,10:45:23.244000,10.062397,-7.7592740000000004,-25.5426407,-9.1903944,7.028823399999999,0.9485812
285,10:45:23.254000,-7.361853599999999,-9.4040203,-21.64744,-9.365101800000001,6.0942006,1.2918872
286,10:45:23.265000,-6.085799199999999,-9.7248287,-19.887777300000003,-10.3339338,5.7643337,2.4904037
287,10:45:23.273000,-12.1308985,-10.668104199999998,-17.0579548,-8.275319099999999,3.124176,3.4506831
288,10:45:23.284000,-9.485419300000002,-9.6530056,-19.2078533,-3.1147343999999997,1.2341606999999999,2.8911309
289,10:45:23.293000,-8.156694400000001,-0.6607713000000001,-22.736755399999996,-3.1147343999999997,1.2341606999999999,2.8911309
290,10:45:23.302000,-6.9644337,7.4169178,-21.922761899999998,2.5577555,-0.6094291000000001,2.0200379
291,10:45:23.312000,-5.334052099999999,7.0218916,-16.3109951,7.2992878,-1.5245044,2.1996322
292,10:45:23.322000,-4.651733900000001,7.9771371,-12.8539162,10.714021699999998,-1.915458,1.8636564999999998
293,10:45:23.332000,-3.5456602999999998,7.5031056,-11.9273996,11.5350237,-1.9130144,1.8294481
294,10:45:23.341000,-3.5384779,6.2222624,-12.1476574,10.8826199,-2.0877218,2.0811243000000004
295,10:45:23.351000,-4.0747561,8.0609303,-10.5268517,9.1440992,-2.4310278999999997,2.7029846
296,10:45:23.361000,-2.1427186000000003,13.564964300000002,-10.095913900000001,9.1440992,-2.4310278999999997,2.7029846
297,10:45:23.370000,-1.2569019,10.2419538,-6.813604799999999,7.6780238,-2.3051896000000003,2.8874657000000004
298,10:45:23.381000,-2.956712,4.970149,-9.016176199999999,8.7042761,-2.0974956000000002,2.0175943
299,10:45:23.389000,-3.7611291,3.8473167,-12.7389994,8.7042761,-2.0974956000000002,2.0175943
300,10:45:23.400000,-5.295746299999999,6.6699591,-19.425718300000003,11.8771076,-3.2996773999999998,2.4684126
301,10:45:23.409000,-0.8115995,13.5266581,-3.3493443,11.8771076,-3.2996773999999998,2.4684126
302,10:45:23.418000,0.7086533,9.384866699999998,-6.1624098,11.115970599999999,-3.3375510999999998,2.61502
303,10:45:23.428000,-0.5721896,5.257441,-11.240294500000001,10.794655800000001,-3.2483649,1.6327497
304,10:45:23.438000,-0.9791864,5.3962984,-11.7646008,10.794655800000001,-3.2483649,1.6327497
305,10:45:23.448000,-2.2767880000000003,0.1484341,-7.1751142,11.4653854,-4.2660651,0.9339204
306,10:45:23.457000,-6.557436500000001,-4.0627856,1.0510093999999999,12.756753,-3.9691851000000002,0.6639181
307,10:45:23.467000,-5.317293599999999,-2.7244842,2.2648175,8.327983900000001,-2.6081786,2.6089115
308,10:45:23.477000,-4.9533906,-2.4012811000000003,4.2160082,8.327983900000001,-2.6081786,2.6089115
309,10:45:23.486000,0.0813994,2.47071,6.4544902,5.1001744,-4.2355218,2.6186852000000003
310,10:45:23.497000,1.8099386999999998,4.8336854,13.9384432,0.7569263,-5.0943974999999995,2.8776919999999997
311,10:45:23.506000,3.4834137000000003,3.1003580000000004,19.3778362,0.7569263,-5.0943974999999995,2.8776919999999997
312,10:45:23.517000,5.0323954,-0.1532223,19.509510000000002,-1.4666214,-3.1542916,1.2283572
313,10:45:23.526000,6.4401255,0.6631654,15.0277576,-1.4666214,-3.1542916,1.2283572
314,10:45:23.535000,11.0080662,4.0316625,8.7791595,-3.9259627,-3.1249702,0.9620200999999999
315,10:45:23.545000,25.9280891,2.9519238,1.3478776000000001,-6.7713703999999995,-3.5037062000000003,0.2656344
316,10:45:23.554000,52.761146499999995,-13.3614655,-0.9456690000000001,-9.4335184,-3.5354712,-1.6549243000000002
317,10:45:23.564000,53.6349945,-26.804330800000002,-6.1552280999999995,-13.1793413,0.5426616999999999,-4.6115093
318,10:45:23.574000,34.3648911,-34.9131432,-12.8778572,-13.1793413,0.5426616999999999,-4.6115093
319,10:45:23.583000,24.6975212,-51.3605995,-21.4176083,-14.6124296,3.7900186000000002,-3.3470193999999998
320,10:45:23.593000,18.3962536,-53.09632489999999,-16.1817131,-13.960026699999998,5.7679987,-3.3482413
321,10:45:23.603000,11.762207,-36.7637787,-4.1178498,-9.909993199999999,5.342836900000001,-3.8870239
322,10:45:23.614000,9.023358300000002,-19.624427800000003,3.0261407000000005,-2.2949537999999996,4.272602099999999,-3.2346202999999996
323,10:45:23.622000,7.5222583,-12.6169004,3.1745751,-2.2949537999999996,4.272602099999999,-3.2346202999999996
324,10:45:23.632000,3.2176687999999998,-9.207703599999999,-0.9600335999999999,-3.5472267,3.990382,-2.622534
325,10:45:23.642000,-3.7323998999999994,-4.781014900000001,-10.871602099999999,-6.5991063,4.563373599999999,-1.3372746000000002
326,10:45:23.652000,-44.585300399999994,-11.7837543,-33.5054131,-10.2740688,5.7447858,0.31450359999999994
327,10:45:23.662000,-27.3118782,-10.694438900000002,-31.994735700000003,-13.466447800000001,6.6671914999999995,0.7860911
328,10:45:23.671000,-28.166572600000002,-18.7457943,-31.8127842,-13.7999802,7.0593667,0.3071732
329,10:45:23.680000,-14.615973499999999,-15.652618400000001,-22.8995533,-10.6784611,3.8694308,-0.16197089999999997
330,10:45:23.690000,-11.0894651,-12.968833,-15.350960699999998,-6.5245809999999995,-0.0914159,1.3041044
331,10:45:23.700000,-1.7357216,-3.9047748999999996,-12.7270288,-1.4971646,-0.7291585999999999,3.4971087
332,10:45:23.710000,-4.8360796,2.3797342999999995,-11.1541061,2.4209218,-0.7450411,3.0829425
333,10:45:23.719000,-4.555970200000001,3.0979638,-13.0095329,4.6420259,-1.7004335,2.5771465
334,10:45:23.732000,-4.352471400000001,10.1485853,-11.992040600000001,3.3897531,-2.2367728,2.6003594
335,10:45:23.739000,2.1786296000000003,13.7660685,-7.2828484,2.9511523,-2.1194868,2.7921709999999997
336,10:45:23.748000,4.9821196,7.9795308,-7.421706200000001,2.9511523,-2.1194868,2.7921709999999997
337,10:45:23.758000,-0.8163876999999999,3.3086444999999998,-7.3450952,3.6817464999999996,-1.9007971000000001,2.4183216
338,10:45:23.768000,-2.4443748,0.31362690000000004,-14.4938736,5.2150172999999995,-1.9117928,2.5783682
339,10:45:23.778000,-0.7565352,6.945280599999999,-17.3787613,8.3670788,-3.1469612000000002,3.4409091
340,10:45:23.787000,1.1348027,7.0362558,-6.8064227,8.3670788,-3.1469612000000002,3.4409091
341,10:45:23.797000,-2.0517426,-0.7302001,-7.8909497,9.7916155,-2.2098949,3.2405455
342,10:45:23.806000,-0.5051548,1.5370114,-11.187623,9.7916155,-2.2098949,3.2405455
343,10:45:23.816000,1.5896816,1.8985202,-9.463872,10.8606291,-3.8335731,2.35357
344,10:45:23.826000,-1.2185962,3.7874641000000002,-10.5124884,11.6388702,-4.9404597,1.5667763000000001
345,10:45:23.836000,-6.5885601,9.0209637,-12.686328900000001,11.8038044,-4.1597748,2.2301752999999995
346,10:45:23.845000,-4.8911432999999995,12.224267999999999,1.4197004999999998,9.3908882,-3.4291809,3.7756631
347,10:45:23.855000,3.2655509,7.3307304,21.4032421,6.6248932,-4.1646619,3.9137185
348,10:45:23.864000,4.2112193,7.4671940999999995,12.0111933,4.91325,-4.9538989,2.4794083
349,10:45:23.874000,5.9253945,7.0123148,18.6811523,2.6432765,-4.3295951,1.5484504
350,10:45:23.884000,6.9357042,2.7747604999999997,21.783903100000003,-3.3847365,-3.4719412000000003,1.5252374
351,10:45:23.896000,5.6955609,1.6423517,17.6349316,-6.545350599999999,-2.0437396,0.8789425
352,10:45:23.903000,7.1775079,6.193533400000001,7.922072900000001,-6.545350599999999,-2.0437396,0.8789425
353,10:45:23.913000,12.0710459,6.8471227,-6.0690403,-14.1310682,-1.473192,-1.6329331
354,10:45:23.923000,43.7545471,-15.5281239,-14.2424927,-14.1310682,-1.473192,-1.6329331
355,10:45:23.932000,65.3086166,-52.1626244,-26.392543800000002,-16.6209545,-1.0113782,-4.271868700000001
356,10:45:23.943000,34.0752068,-46.54367070000001,-20.3474464,-14.9826136,7.0642538,-2.9682834
357,10:45:23.952000,21.075252499999998,-39.332649200000006,-22.573957399999998,-14.9826136,7.0642538,-2.9682834
358,10:45:23.961000,21.657018700000002,-40.386051200000004,-33.0960236,-12.7944965,8.046524,-3.1857512000000003
359,10:45:23.977000,22.004161800000002,-35.174099,-27.022191999999997,-10.537962,6.885880900000001,-1.6048334
360,10:45:23.981000,7.419312,-22.7487259,-26.0238533,-9.558135,6.6048832,0.38780729999999997
361,10:45:23.990000,0.9576395000000001,-12.6025362,-20.519819299999998,-10.1237955,5.3709369,1.9943817
362,10:45:24,-1.235355,-8.834223699999999,-14.7859545,-10.1237955,5.3709369,1.9943817
363,10:45:24.010000,-12.0303459,-7.9627724,-13.148389800000002,-11.070635800000002,3.408839,3.3395057
364,10:45:24.026000,-11.6113787,-3.3541322,-14.886506099999998,-11.070635800000002,3.408839,3.3395057
365,10:45:24.029000,-17.6277504,-0.0526702,-18.829586,-10.7444344,3.052094,3.7060246
366,10:45:24.038000,-14.0988483,1.745298,-21.534917800000002,-7.815949000000001,1.6300008,3.2845277999999998
367,10:45:24.048000,-12.339184800000002,3.3661027000000003,-23.5675087,-2.4024661,0.39605409999999996,2.5221686
368,10:45:24.060000,-8.664242699999999,3.5935422999999993,-12.7054815,3.4838263999999994,-0.8232318000000001,0.953468
369,10:45:24.069000,-8.082477599999999,4.771439099999999,-8.937171000000001,11.5240278,-1.3021498,0.9326986999999999
370,10:45:24.079000,-6.2270508,5.4824858,-7.8023682,11.179500599999999,-1.5318348,1.3260956
371,10:45:24.088000,-6.4640665,6.7513585,-8.0681133,11.179500599999999,-1.5318348,1.3260956
372,10:45:24.097000,-6.8375459,11.1995935,-9.1981268,9.8893538,-1.8470411,2.046916
373,10:45:24.109000,-3.7132473,10.8859673,-10.086338,7.4593343999999995,-1.9191232,2.8361533
374,10:45:24.117000,-2.5521092,7.665903999999999,-8.0848713,6.1985092,-1.8568148999999998,2.5270557
375,10:45:24.127000,-4.3500776,4.3572593,-10.208437,7.464221,-1.9472228999999999,1.9479558000000001
376,10:45:24.136000,-5.451363099999999,6.2318392,-20.6658592,9.3481283,-1.9924269000000001,2.0395856
377,10:45:24.146000,1.2521136,22.763090100000003,3.7228234,9.010931,-2.9441542999999997,2.773845
378,10:45:24.156000,2.0972304,7.7736387,-5.906241400000001,9.010931,-2.9441542999999997,2.773845
379,10:45:24.165000,-0.6847122,3.1889396,-15.956667900000001,9.5790348,-2.2734246,1.8245612
380,10:45:24.177000,1.7548743000000002,-1.4963118,-8.8438005,12.177653300000001,-5.2214575,0.1532353
381,10:45:24.185000,-1.5537702,-2.4515569,-12.985591900000001,12.177653300000001,-5.2214575,0.1532353
382,10:45:24.194000,-3.8521049,1.4556118999999998,-14.7811661,7.3017311000000005,-3.6283226,1.7451488000000002
383,10:45:24.205000,-0.8618754999999999,1.5705287,-0.316021,7.3017311000000005,-3.6283226,1.7451488000000002
384,10:45:24.215000,1.8362738,0.0646407,9.9043875,3.2468109,-5.2446704,1.5032463
385,10:45:24.227000,1.8123327,1.2401432,10.522064199999999,1.5229506000000002,-4.8659344,1.8978648999999999
386,10:45:24.234000,3.7826760000000004,2.9064360000000002,12.013588,-0.32552600000000004,-4.736431099999999,1.7598095
387,10:45:24.245000,5.3244753,-2.2767880000000003,19.4209309,-0.32552600000000004,-4.736431099999999,1.7598095
388,10:45:24.254000,6.2222624,0.1316754,19.0618134,-3.2051423,-3.7602693999999994,0.7848694
389,10:45:24.272000,15.6765594,4.6182165,1.8745793999999998,-3.2051423,-3.7602693999999994,0.7848694
390,10:45:24.281000,33.8980446,-8.7312784,-3.1147225,-8.6186256,-2.322294,-0.8510264000000001
391,10:45:24.293000,68.897377,-44.5446014,-11.9226122,-14.9496269,0.8651983,-2.0935252
392,10:45:24.301000,34.9346886,-41.6692886,-9.4926023,-14.9496269,0.8651983,-2.0935252
393,10:45:24.312000,17.9341946,-29.1697006,-12.054287,-12.986308099999999,7.8314996,-0.9255518
394,10:45:24.323000,21.587587399999997,-31.300447499999997,-25.2984428,-12.986308099999999,7.8314996,-0.9255518
395,10:45:24.330000,20.7712002,-26.7636299,-23.7350941,-13.0363989,8.185800599999999,-2.1533898999999996
396,10:45:24.343000,19.6507626,-21.142286300000002,-23.6153908,-10.892263400000001,7.2047524,-1.0465030999999998
397,10:45:24.351000,8.321887,-11.3959103,-24.7597694,-10.892263400000001,7.2047524,-1.0465030999999998
398,10:45:24.359000,4.4697824,-8.776765800000002,-17.943769500000002,-10.955793400000001,7.2157483,-0.49428130000000003
399,10:45:24.369000,0.6248598000000001,-8.3290691,-15.204920800000002,-11.9392862,5.9879098,2.1568716
400,10:45:24.380000,-2.7675784,-8.3434343,-18.0491104,-11.9392862,5.9879098,2.1568716
401,10:45:24.391000,-10.8548441,-10.2180128,-24.83638,-12.5574808,5.5578613,3.7316809
402,10:45:24.398000,-17.577474600000002,-4.3069835,-30.191980400000002,-10.004066499999999,3.5236813999999996,3.7695544
403,10:45:24.410000,-7.529440400000001,-1.5729228000000002,-25.942453399999998,2.1093807,-0.0828638,2.5710377999999996
404,10:45:24.419000,-7.1918726,1.6184107,-17.747453699999998,2.1093807,-0.0828638,2.5710377999999996
405,10:45:24.428000,-5.381934200000001,3.7443705,-14.1922169,8.1825981,-0.36874850000000003,1.9418471999999998
406,10:45:24.438000,-4.409930200000001,6.040310900000001,-11.1421356,11.2100439,-0.6338636999999999,2.1532063
407,10:45:24.447000,-2.6215382000000003,0.9911568999999999,2.3126995999999997,11.2271481,-1.0834602,2.3572352000000003
408,10:45:24.459000,3.6893062999999993,19.2868595,-10.225195900000001,4.9963274,-0.8672141,3.613173
409,10:45:24.467000,-1.091709,12.6695709,-18.0754452,4.9963274,-0.8672141,3.613173
410,10:45:24.477000,-2.9231944,-0.2992623,-11.802907000000001,4.860715900000001,-1.6808858,1.4384947
411,10:45:24.485000,-3.5480542,-3.2511859,-14.517814600000001,4.860715900000001,-1.6808858,1.4384947
412,10:45:24.496000,-10.660922099999999,9.5572424,-49.4620781,9.394553199999999,-2.4163671,1.8062352
413,10:45:24.511000,77.32220459999999,34.5468445,78.4402466,9.3688974,-5.1664796,2.6370112999999997
414,10:45:24.515000,-10.8859673,11.673625,-2.5688679,9.3688974,-5.1664796,2.6370112999999997
415,10:45:24.525000,4.4338708,-2.0493486,-8.7169142,12.432994800000001,-3.4853803999999995,4.657751599999999
416,10:45:24.535000,4.3309245,-0.3830558,-4.2543135,13.6962633,-5.846983,-1.1491283
417,10:45:24.544000,-15.956667900000001,-1.2760546,-4.7259512,11.5802279,-7.784646,-3.6377912000000006
418,10:45:24.557000,-35.13579179999999,5.8392072,-9.8876276,13.426260899999999,-1.2508371,5.3956761
419,10:45:24.563000,-23.4454098,16.0811615,-8.9204121,13.426260899999999,-1.2508371,5.3956761
420,10:45:24.575000,-16.646169699999998,21.0393391,-3.9909625,5.3567376,-8.8915329,2.5734812999999996
421,10:45:24.583000,-6.4544902,28.915924100000005,18.635664000000002,5.3567376,-8.8915329,2.5734812999999996
422,10:45:24.592000,1.8961263,17.5607147,-2.3342462000000004,1.5925891,-11.085759199999998,-0.10821480000000001
423,10:45:24.602000,1.9511904999999998,-2.6789966,-23.3400688,1.5925891,-11.085759199999998,-0.10821480000000001
424,10:45:24.611000,21.8629093,-16.3971825,-8.6929731,-1.7060803,-6.8048191,-0.8876782
425,10:45:24.623000,52.0572853,-10.3544769,-13.9408369,-12.4511909,-6.2012844000000005,4.1507339
426,10:45:24.631000,53.6517525,-51.0397911,-16.203260399999998,-12.4511909,-6.2012844000000005,4.1507339
427,10:45:24.642000,8.97787,-22.552410100000003,-8.348222699999999,-9.1476345,1.2744777,1.4299426000000002
428,10:45:24.651000,12.099775300000001,-29.394744899999996,-7.069773700000001,-9.1476345,1.2744777,1.4299426000000002
429,10:45:24.660000,20.4719372,-24.8220158,-9.6218834,-8.4463615,1.0997703,1.9039736
430,10:45:24.673000,18.3435841,-15.382083900000001,-8.130359599999998,-6.2044878,0.6123003,2.8300445
431,10:45:24.680000,11.7023554,-9.521330800000001,-6.5789833,-6.2044878,0.6123003,2.8300445
432,10:45:24.693000,9.4758434,-9.8565054,-6.8447285,-5.241765,1.015471,2.6345677000000003
433,10:45:24.702000,7.4145240999999995,-13.023897199999999,-7.5629577999999995,-5.4787807,1.1352004999999998,2.2656054
434,10:45:24.709000,5.0563364,-15.008605,-8.623543699999999,-5.9601421,1.422307,-0.8424742000000001
435,10:45:24.725000,4.256707700000001,-16.646169699999998,-8.130359599999998,-5.1880087999999995,1.4833934,-1.9408089
436,10:45:24.728000,3.3637087,-16.7539024,-6.9883742,-5.1880087999999995,1.4833934,-1.9408089
437,10:45:24.742000,2.61675,-16.8472729,-5.987640900000001,-3.9076369,1.625114,-3.2566116000000003
438,10:45:24.746000,1.6136225,-16.919096,-5.0587306,-3.9076369,1.625114,-3.2566116000000003
439,10:45:24.756000,0.12928130000000002,-16.3205719,-4.316559799999999,-3.9186322999999996,1.7179653999999998,-3.3812279999999997
440,10:45:24.767000,-1.601652,-14.800317800000002,-5.037183799999999,-4.0395832,1.7949343,-2.9597312999999996
441,10:45:24.776000,-2.0589249,-13.6367865,-4.8887496,-3.9638364,1.8499122,-2.2010374
442,10:45:24.788000,-1.6806574,-12.4541016,-4.5535760000000005,-2.7677631000000003,1.31846,-1.1796715
443,10:45:24.796000,-1.333513,-11.4413977,-4.4673886,-2.7677631000000003,1.31846,-1.1796715
444,10:45:24.806000,-1.4651883999999997,-10.6106462,-4.338107099999999,-1.5008298,1.0228014,-0.1607492
445,10:45:24.825000,-1.2664783000000002,-10.586705199999999,-4.6972213,-1.5008298,1.0228014,-0.1607492
446,10:45:24.838000,-1.8530324,-10.433482199999998,-5.0539427,-0.07140629999999999,0.9910363999999999,0.7164524999999999
447,10:45:24.845000,-2.2073591,-10.361659,-5.2598348,-0.07140629999999999,0.9910363999999999,0.7164524999999999
448,10:45:24.855000,-2.2360882999999996,-10.016908599999999,-5.597403,1.1405493,0.8089987,1.1098495000000002
449,10:45:24.864000,-2.130748,-9.1981268,-6.085799199999999,1.1405493,0.8089987,1.1098495000000002
450,10:45:24.873000,-1.6255928999999998,-8.192606,-6.286903400000001,1.7538575,0.6672781,1.2796698999999998
451,10:45:24.886000,-0.7804762,-7.764061900000001,-6.428154900000001,2.1106026,0.5255575,1.4983594
452,10:45:24.893000,0.009576399999999999,-7.335518400000001,-6.629259599999999,2.2230015,0.3850586,1.6400801
453,10:45:24.907000,0.6703475999999999,-6.679535400000001,-6.6699591,2.0091989,0.2909854,1.9222994999999998
454,10:45:24.913000,1.2592959,-6.121710299999999,-6.962039,2.0091989,0.2909854,1.9222994999999998
455,10:45:24.922000,1.9248554,-5.3939047,-6.8447285,1.7477488999999997,0.3667327,1.9907165
456,10:45:24.932000,2.6502673999999997,-4.8336854,-6.768117,1.7477488999999997,0.3667327,1.9907165
457,10:45:24.941000,3.0500817000000002,-4.5990634,-7.4384651,1.6487886999999999,0.44858859999999995,1.9406254
458,10:45:24.953000,3.5241132000000004,-4.5918813,-7.735333,1.3482432,0.6684998000000001,1.7317096999999997
459,10:45:24.961000,3.9909625,-4.529635,-7.797579300000001,1.3482432,0.6684998000000001,1.7317096999999997
460,10:45:24.971000,4.419506500000001,-4.6397634000000005,-7.701815600000001,0.8815427,0.8517593000000001,1.3297608
461,10:45:24.980000,4.601458099999999,-4.781014900000001,-7.4671940999999995,0.8815427,0.8517593000000001,1.3297608
462,10:45:24.990000,4.271071900000001,-4.7379217,-6.983585799999999,0.8485559000000001,0.9922581,0.7970866999999999
463,10:45:25.002000,3.610301,-4.8839616999999995,-6.459278599999999,0.9133077,1.0643401000000001,0.5160889
464,10:45:25.009000,3.0524758999999997,-5.3220816,-5.875118700000001,0.9133077,1.0643401000000001,0.5160889
465,10:45:25.020000,2.4324043,-5.7410488,-5.4896684,1.0648021,1.1852913,-0.09233229999999999
466,10:45:25.029000,1.9823137999999998,-6.2318392,-5.9206061,1.0648021,1.1852913,-0.09233229999999999
467,10:45:25.039000,2.1762357000000003,-6.4137907,-6.2749329000000005,1.3751214,1.0692270000000001,-0.6030151999999999
468,10:45:25.048000,2.9423472999999998,-6.5047665,-6.2126861,1.3751214,1.0692270000000001,-0.6030151999999999
469,10:45:25.058000,3.8784398999999996,-6.7298117,-6.4975839,1.8186091,0.7137038,-1.0281771
470,10:45:25.069000,5.0778837,-6.6699591,-6.3323908,1.8186091,0.7137038,-1.0281771
471,10:45:25.078000,6.0786166,-6.2797208,-5.9253945,1.9139041,0.5231140000000001,-1.227319
472,10:45:25.087000,6.7082644,-6.112133999999999,-5.4322099999999995,1.9114605,0.3911672,-1.3751482
473,10:45:25.096000,7.0362558,-6.0498877,-4.8959322,1.7660748,0.37406300000000003,-1.6756936000000002
474,10:45:25.105000,6.8590932,-6.1743803,-4.4410529,1.7660748,0.37406300000000003,-1.6756936000000002
475,10:45:25.119000,6.289297599999999,-6.456884400000001,-4.3093777,1.1649839,0.6159654999999999,-1.7184542
476,10:45:25.125000,5.7123194,-6.8878222000000004,-4.4697824,1.1649839,0.6159654999999999,-1.7184542
477,10:45:25.139000,5.37954,-7.1775079,-4.5894876,0.35742070000000004,0.848094,-1.6891327
478,10:45:25.145000,5.257441,-7.3307304,-4.802562200000001,0.35742070000000004,0.848094,-1.6891327
479,10:45:25.154000,5.142523799999999,-7.3929772,-4.8959322,0.0165582,0.9543845,-1.6610328999999997
480,10:45:25.167000,5.1018243,-7.4360704,-4.9988779999999995,-0.3511823,1.1119876,-1.5865074
481,10:45:25.174000,4.948602200000001,-7.4384651,-5.1592832,-0.3511823,1.1119876,-1.5865074
482,10:45:25.187000,4.828897,-7.531834599999999,-5.286169999999999,-0.5307765999999999,1.2194998,-1.4851038
483,10:45:25.194000,4.9605727,-7.8143387,-5.4154515,-0.5307765999999999,1.2194998,-1.4851038
484,10:45:25.203000,5.1497064,-8.5014448,-5.5782499,-0.44159030000000005,1.2194998,-1.5229774999999999
485,10:45:25.213000,5.4010868,-9.234039300000001,-5.257441,-0.3010914,1.1657438,-1.5632945
486,10:45:25.222000,5.6524668,-10.024090800000002,-4.8600205999999995,-0.20824,1.0826662,-1.5413033999999999
487,10:45:25.235000,5.8296304,-10.5938873,-4.455418099999999,0.0361059,1.0228014,-1.4472302
488,10:45:25.242000,5.7171078,-10.601069500000001,-3.9478687999999993,0.0361059,1.0228014,-1.4472302
489,10:45:25.252000,5.5782499,-10.3520832,-3.4068023999999997,0.3085515,1.0008101,-1.3226138
490,10:45:25.261000,5.3053231,-9.885233900000001,-3.0117762000000003,0.3085515,1.0008101,-1.3226138
491,10:45:25.270000,5.082671599999999,-9.528513,-2.7795486,0.414842,1.0350187,-1.2456448999999998
492,10:45:25.281000,4.922267,-9.351349800000001,-2.693361,0.43316800000000005,1.0692270000000001,-1.1735628999999999
493,10:45:25.290000,4.390777099999999,-8.661849,-3.6318479,0.3500904,1.1119876,-1.1051461
494,10:45:25.301000,4.3405008,-8.637908,-3.1051458999999997,0.0373276,1.2036173000000001,-0.9768645
495,10:45:25.309000,3.9119572999999996,-9.0592699,-2.6287205,0.0373276,1.2036173000000001,-0.9768645
496,10:45:25.320000,3.1937277,-9.767923399999999,-2.8729186,-0.5258896,1.4968324,-0.6152326
497,10:45:25.339000,2.3845222,-11.5778618,-3.4068023999999997,-0.5258896,1.4968324,-0.6152326
498,10:45:25.351000,2.305517,-12.4062204,-3.6510005,-1.0426812,1.8303645,-0.1925142
499,10:45:25.358000,2.5185918999999997,-12.372701600000001,-3.8688636,-1.0426812,1.8303645,-0.1925142
500,10:45:25.368000,2.8106720000000003,-11.620955499999999,-3.8473167,-0.5332201,1.792491,0.005406
501,10:45:25.379000,3.0045941000000003,-10.5962811,-4.0316625,-0.5332201,1.792491,0.005406
502,10:45:25.389000,3.4091966,-9.813410800000002,-4.1968551,-0.18869229999999998,1.6849787,0.1764481
503,10:45:25.404000,3.7563410000000004,-9.370502499999999,-4.472176599999999,-0.2522223,1.5921273,0.2485302
504,10:45:25.407000,4.0891209,-9.1574278,-4.6780691,-0.3866125,1.5078280000000002,0.31816880000000003
505,10:45:25.419000,4.1800966,-9.3752909,-4.8719912,-0.4623597,1.4186418,0.3511555
506,10:45:25.424000,4.2638898,-9.6697655,-4.7331328,-0.4623597,1.4186418,0.3511555
507,10:45:25.434000,4.060391399999999,-9.6793413,-4.5990634,-0.4806857,1.2976903999999998,0.36703790000000003
508,10:45:25.445000,3.8736517,-9.5835772,-4.464994,-0.2998697,1.0985486999999998,0.44400690000000004
509,10:45:25.453000,3.6629709999999998,-8.9419594,-4.7211623,-0.2998697,1.0985486999999998,0.44400690000000004
510,10:45:25.467000,3.6390300000000004,-8.400893199999999,-5.1114011,-0.14226660000000002,0.7295863,0.5869492
511,10:45:25.474000,3.8497107,-8.230911299999999,-5.3196874,-0.14226660000000002,0.7295863,0.5869492
512,10:45:25.484000,3.8066169999999997,-8.2668228,-5.4154515,-0.176475,0.3667327,0.8129691
513,10:45:25.494000,3.6988826,-8.3242817,-5.738654599999999,-0.176475,0.3667327,0.8129691
514,10:45:25.503000,3.8114052000000003,-8.7288837,-6.0020055999999995,-0.3560692,0.11261289999999999,1.1489448999999998
515,10:45:25.515000,3.9023809000000003,-9.066452,-6.0379171,-0.3560692,0.11261289999999999,1.1489448999999998
516,10:45:25.523000,3.9598392999999996,-9.341773,-5.9325767,-0.3597344,-0.0425467,1.2625656
517,10:45:25.532000,3.8616812000000005,-9.2819214,-5.7506251,-0.04575,-0.2697884,1.3847386000000002
518,10:45:25.542000,3.9598392999999996,-8.9180183,-5.4465747,-0.04575,-0.2697884,1.3847386000000002
519,10:45:25.552000,4.1513672,-8.580450099999998,-5.2981405,0.21203490000000003,-0.5092474,1.3322041999999998
520,10:45:25.564000,4.464994,-8.3242817,-5.5758562000000005,0.21203490000000003,-0.5092474,1.3322041999999998
521,10:45:25.571000,4.7403154,-8.3314638,-6.4927959,0.17904820000000002,-0.6130943,1.2870002
522,10:45:25.581000,5.0994306,-8.848588900000001,-7.524652499999999,-0.3414085,-0.813458,1.1831533
523,10:45:25.591000,5.3220816,-9.2316446,-8.7145185,-0.5772023000000001,-0.9356309000000002,1.0536499
524,10:45:25.601000,5.5447326,-9.0449047,-9.6075182,-0.5772023000000001,-0.9356309000000002,1.0536499
525,10:45:25.609000,5.944547200000001,-9.076027900000001,-8.953928900000001,-0.6480626,-1.1091166000000001,0.9009337
526,10:45:25.619000,5.8320246,-9.188550900000001,-8.326675400000001,-0.44159030000000005,-1.3534625,0.7164524999999999
527,10:45:25.634000,5.8200541,-9.3992319,-7.788003,-0.1544839,-1.6039169,0.6590313
528,10:45:25.640000,6.310844400000001,-10.062397,-7.5629577999999995,0.23646950000000003,-2.1707994999999998,0.7885346
529,10:45:25.649000,7.1775079,-10.565157899999999,-7.273272,0.5260194,-2.4273627,0.8752773000000001
530,10:45:25.658000,7.914890299999999,-10.3951769,-6.725023299999999,0.5260194,-2.4273627,0.8752773000000001
531,10:45:25.668000,7.8981318,-10.225195900000001,-6.8375459,0.7105005999999999,-2.5898526,1.0316588
532,10:45:25.681000,7.069773700000001,-9.846927599999999,-6.4736428,0.7789174,-2.7108037,1.2943306
533,10:45:25.687000,5.7506251,-9.384866699999998,-6.2509917999999995,0.7789174,-2.7108037,1.2943306
534,10:45:25.698000,4.6804628,-9.253191900000001,-6.1073461,0.3012212,-2.7767772999999996,1.5679981
535,10:45:25.707000,4.034056700000001,-9.3728971,-5.7865367,0.3012212,-2.7767772999999996,1.5679981
536,10:45:25.716000,3.3732852999999996,-9.576395,-5.6524668,0.011671299999999999,-2.8561897000000003,1.6706233
537,10:45:25.726000,2.7795486,-9.3345909,-5.5040331,-0.1398231,-2.931937,1.7243794
538,10:45:25.736000,2.4611335,-9.3130436,-4.8456559,-0.14104489999999997,-3.1628437000000003,1.7451488000000002
539,10:45:25.747000,2.1092009999999997,-8.999417300000001,-4.5894876,0.0165582,-3.2789080000000004,1.7256011000000002
540,10:45:25.754000,1.7333275000000001,-8.518202800000001,-4.3668360999999996,0.0727578,-3.4206288000000002,1.7622529999999998
541,10:45:25.764000,1.3502717,-8.319493300000001,-3.8664693999999997,0.103301,-3.5366929,1.7989049
542,10:45:25.773000,0.9121516,-7.8837671,-3.6079068,0.103301,-3.5366929,1.7989049
543,10:45:25.783000,0.4548787,-7.3714299,-3.4762315999999998,0.07397949999999999,-3.6319877999999997,1.8575479
544,10:45:25.795000,0.14125179999999998,-7.115261599999999,-3.3780732,-0.0604107,-3.7162870999999997,1.943069
545,10:45:25.802000,-0.33517379999999997,-6.962039,-3.6174831,-0.2204573,-3.7663782,1.9956033
546,10:45:25.815000,-0.8882107,-6.6891122,-3.8137991,-0.6407322,-3.7773736000000007,2.1629803
547,10:45:25.822000,-1.3622421,-6.3754849,-3.8616812000000005,-0.6407322,-3.7773736000000007,2.1629803
548,10:45:25.831000,-1.6974159,-6.4137907,-3.8473167,-0.876526,-3.8079169000000004,2.2326188
549,10:45:25.844000,-2.1427186000000003,-6.564619099999999,-3.9933567,-1.0194684,-3.8592296000000004,2.2399492000000003
550,10:45:25.851000,-2.5808383999999998,-6.938097999999999,-4.472176599999999,-1.0976591,-3.9484157999999994,2.2521665
551,10:45:25.863000,-2.9279827999999997,-7.0649853,-5.1066127,-1.0854416999999998,-4.087692700000001,2.2521665
552,10:45:25.871000,-3.2224569,-7.1583557,-5.774566200000001,-1.0854416999999998,-4.087692700000001,2.2521665
553,10:45:25.881000,-3.8305580999999997,-7.3786125,-6.528707499999999,-0.9315039,-4.1548882,2.1690888
554,10:45:25.889000,-4.043633,-7.2110256999999995,-6.8734574,-0.9315039,-4.1548882,2.1690888
555,10:45:25.900000,-5.0563364,-7.335518400000001,-6.8878222000000004,-0.9070691999999999,-4.152444399999999,2.1336586
556,10:45:25.912000,-4.6206107,-6.9811921,-7.1846905,-0.9815948,-4.0693669,2.0102642
557,10:45:25.919000,-4.9916959,-6.0283403,-6.7369938,-0.9815948,-4.0693669,2.0102642
558,10:45:25.929000,-5.2023764,-5.6189499000000005,-6.3898497,-1.4983863000000002,-3.7272828000000002,2.0603549
559,10:45:25.939000,-5.556703099999999,-5.6716199000000005,-6.6340475,-1.4983863000000002,-3.7272828000000002,2.0603549
560,10:45:25.948000,-6.152833900000001,-5.9852471,-6.691505900000001,-2.0078475,-3.5232539,1.9210778000000002
561,10:45:25.961000,-6.6603823,-6.169592400000001,-7.060196899999999,-2.3768097999999998,-3.3057861000000006,1.7475922
562,10:45:25.967000,-6.997950599999999,-6.006794,-7.6730865999999995,-2.5600691,-3.1359658,1.5289026000000001
563,10:45:25.980000,-7.230177900000001,-5.4058752,-7.967560300000001,-2.2302022,-2.9759192000000003,1.0243284
564,10:45:25.987000,-7.1392026,-4.7451034000000005,-7.9915012999999995,-2.2302022,-2.9759192000000003,1.0243284
565,10:45:25.997000,-7.1248379,-4.4602059999999994,-7.946013499999999,-1.9553131999999998,-2.9123892999999996,0.6333749
566,10:45:26.006000,-7.1032910000000005,-3.9047748999999996,-7.7999735,-1.9553131999999998,-2.9123892999999996,0.6333749
567,10:45:26.016000,-6.794452199999999,-4.0939087999999995,-7.273272,-2.0347254,-2.8305333,0.5197541
568,10:45:26.029000,-6.562224400000001,-4.5966697,-6.9165516,-2.3230536,-2.6399436,0.2741865
569,10:45:26.036000,-6.3802729000000005,-5.1808295,-6.535889599999999,-2.3230536,-2.6399436,0.2741865
570,10:45:26.045000,-6.040310900000001,-5.216741099999999,-6.1648045,-2.3878055000000002,-2.4982227999999997,0.1715612
571,10:45:26.056000,-5.7625957,-4.821714900000001,-5.913424,-2.2436414,-2.3455067,0.0445014
572,10:45:26.065000,-5.6524668,-4.3644419,-5.9996114,-1.9589784,-2.1842384,-0.08011510000000001
573,10:45:26.077000,-5.7147136,-3.6390300000000004,-5.889483,-1.6963065,-1.7419723999999999,-0.1668578
574,10:45:26.094000,-5.3077168,-3.4307434999999997,-6.3898497,-2.0738208,-1.2569458,-0.21084009999999997
575,10:45:26.104000,-5.0730948,-3.6462126000000006,-6.3204203,-2.0738208,-1.2569458,-0.21084009999999997
576,10:45:26.114000,-4.7283449,-4.0771503,-6.6340475,-2.2851801,-1.0101564,-0.2621527
577,10:45:26.126000,-4.374018700000001,-4.472176599999999,-6.428154900000001,-2.204546,-0.6424159,-0.4490773
578,10:45:26.133000,-4.005327200000001,-4.747498,-6.0379171,-2.204546,-0.6424159,-0.4490773
579,10:45:26.144000,-3.58636,-5.0946422,-5.4489684,-1.4556258,-0.3724136,-0.6188977
580,10:45:26.153000,-3.2128806,-5.6452851,-4.7403154,-1.4556258,-0.3724136,-0.6188977
581,10:45:26.162000,-3.1793633,-5.7314725,-4.6780691,-0.4757988,-0.0242208,-0.7557315
582,10:45:26.171000,-3.0021996,-5.7171078,-4.235160400000001,-0.4757988,-0.0242208,-0.7557315
583,10:45:26.181000,-2.6598437,-5.784142500000001,-4.1298203,-0.1105016,0.1602604,-0.7887181999999999
584,10:45:26.192000,-2.645479,-5.456151,-4.6493402,0.2315826,0.4803535,-0.8754609
585,10:45:26.201000,-2.5161977,-5.2287116,-4.7283449,0.2315826,0.4803535,-0.8754609
586,10:45:26.211000,-2.1115949,-5.7865367,-4.8624144,-0.11783199999999999,0.7992249,-0.870574
587,10:45:26.220000,-1.9104908,-6.428154900000001,-5.2741995,-0.11783199999999999,0.7992249,-0.870574
588,10:45:26.230000,-1.6998101000000003,-7.2828484,-5.080277400000001,-0.3817256,0.9299499,-0.8950085999999999
589,10:45:26.245000,-1.4340651000000002,-8.1207829,-4.900720099999999,-0.5307765999999999,1.1486393999999998,-1.0257336
590,10:45:26.249000,-1.5705287,-8.499051099999999,-4.436265000000001,-0.5307765999999999,1.1486393999999998,-1.0257336
591,10:45:26.259000,-1.6040461000000001,-8.7600069,-4.400353400000001,0.0825316,1.3709943000000002,-1.1283588
592,10:45:26.269000,-1.7764213,-8.4200449,-5.5207915000000005,0.0825316,1.3709943000000002,-1.1283588
593,10:45:26.278000,-1.64714,-7.9196786999999995,-5.9230003,0.4820371,1.4333023999999999,-1.1259153999999998
594,10:45:26.291000,-1.3023897,-7.7425156,-6.0331292,0.7923564000000001,1.4027593,-1.0758245000000002
595,10:45:26.298000,-1.1108619,-7.6802687999999995,-6.035522900000001,0.9487377,1.3001339,-1.0513899
596,10:45:26.309000,-1.0557975,-7.618022,-5.5207915000000005,0.6359751,1.0545664,-1.0122947
597,10:45:26.317000,-1.0150979,-7.6730865999999995,-4.6613107000000005,0.6359751,1.0545664,-1.0122947
598,10:45:26.327000,-0.9959450000000001,-8.0585365,-3.5265076,0.47470680000000004,0.9446107,-1.006186
599,10:45:26.337000,-0.7469588,-8.3147049,-2.3653696,0.3733032,0.8248812,-1.0171815
600,10:45:26.346000,-0.28968590000000005,-8.326675400000001,-1.3670303999999998,0.38063359999999996,0.7014865,-0.9622037
601,10:45:26.359000,0.09097569999999999,-8.1327534,-1.0079155999999998,0.46615470000000003,0.7295863,-0.8534698000000001
602,10:45:26.366000,0.7278060000000001,-7.7951856,-1.2042316000000002,0.46615470000000003,0.7295863,-0.8534698000000001
603,10:45:26.376000,1.6136225,-7.730544999999999,-1.3143603000000001,0.4893675,0.8236595,-0.6812059
604,10:45:26.385000,2.4012811000000003,-7.7161802999999995,-1.2832369,0.4893675,0.8236595,-0.6812059
605,10:45:26.395000,3.2392156,-8.0345955,-1.1898671,0.43561140000000004,0.9042935999999999,-0.6103457
606,10:45:26.407000,3.9263220000000003,-8.1447239,-0.5602191,0.23646950000000003,1.0594531999999999,-0.42586450000000003
607,10:45:26.414000,4.5679407,-7.9795308,0.2968683,0.23646950000000003,1.0594531999999999,-0.42586450000000003
608,10:45:26.427000,5.1832242,-7.471982000000001,1.067768,0.12651389999999998,1.2818079,-0.1583057
609,10:45:26.434000,5.743443,-6.7609348,1.3670303999999998,0.12651389999999998,1.2818079,-0.1583057
610,10:45:26.443000,6.1624098,-6.0738287,1.5130703,-0.2913176,1.5371493999999999,0.2986211
611,10:45:26.454000,6.5263127999999995,-5.685984599999999,1.2760546,-0.2913176,1.5371493999999999,0.2986211
612,10:45:26.462000,6.696293799999999,-5.513609400000001,0.48121379999999997,-0.682271,1.70697,0.5185323000000001
613,10:45:26.474000,6.701082700000001,-5.6093736,-0.3734794,-1.4544041,2.0624931,0.8239646999999999
614,10:45:26.482000,6.686717999999999,-6.085799199999999,-1.0701622,-1.4544041,2.0624931,0.8239646999999999
615,10:45:26.492000,6.7513585,-6.4616723,-1.8266973000000002,-1.8954484,2.3948035,0.9070423000000001
616,10:45:26.501000,6.9213395,-6.7992406,-2.6047795,-1.8954484,2.3948035,0.9070423000000001
617,10:45:26.511000,7.1511731,-6.9524631999999995,-3.1626046000000003,-1.9284351000000002,2.5609585999999998,0.8960468
618,10:45:26.523000,7.4312825,-7.167931599999999,-3.8592873,-1.7354019,2.8468435000000003,0.8716122
619,10:45:26.530000,7.8143387,-7.4815583,-4.5703344,-1.7354019,2.8468435000000003,0.8716122
620,10:45:26.541000,8.1710587,-7.776032400000001,-5.3891163,-1.6987499,3.0007813,0.9009337
621,10:45:26.548000,8.7576132,-8.2237291,-6.2940855,-1.7964883000000003,3.3953998,1.0976322
622,10:45:26.559000,9.4135962,-8.518202800000001,-7.2349663,-1.9064438000000001,3.6092025999999997,1.2821133
623,10:45:26.568000,9.854109800000002,-8.582843800000001,-8.2045765,-1.9064438000000001,3.6092025999999997,1.2821133
624,10:45:26.577000,10.1533728,-8.865347900000002,-9.3345909,-2.0212865,3.8694308,1.5460068999999999
625,10:45:26.588000,10.1892843,-9.3369846,-11.0200367,-2.141016,4.17242,1.8661
626,10:45:26.598000,9.851716,-9.9474802,-13.478776000000002,-2.2509716,4.5120606,2.1886365000000003
627,10:45:26.608000,9.236433,-10.660922099999999,-15.343778599999998,-2.3340492000000004,4.877358,2.5294991000000002
628,10:45:26.618000,8.5469332,-11.934581800000002,-17.8839188,-2.3218319,5.2157769,2.8508139
629,10:45:26.627000,7.6850572,-12.968833,-20.4049034,-2.2411978,5.5334268,3.1782374
630,10:45:26.639000,7.07935,-13.8498611,-22.1430206,-1.8355837,6.0257835,3.8966142999999995
631,10:45:26.646000,6.4042139,-14.103635800000001,-24.1157551,-1.8355837,6.0257835,3.8966142999999995
632,10:45:26.657000,7.711391900000001,-14.7931356,-25.032695800000003,-1.1062112,6.1223000999999995,4.8715544
633,10:45:26.666000,8.776765800000002,-12.6384468,-25.4636345,-1.1062112,6.1223000999999995,4.8715544
634,10:45:26.675000,6.5382833,-10.6154337,-26.5984383,-0.45136409999999993,5.975692700000001,5.224634200000001
635,10:45:26.688000,8.937171000000001,-12.171598399999999,-28.075595899999996,0.2352478,5.7093558,6.7053704
636,10:45:26.695000,6.6603823,-9.7344065,-30.2254963,0.2352478,5.7093558,6.7053704
637,10:45:26.706000,4.5416055,-7.187084700000001,-31.6643505,0.6103187,5.2609810999999995,6.903290299999999
638,10:45:26.714000,2.5066216,-5.8224478,-32.2102051,1.1637621,4.8236017,7.348
639,10:45:26.723000,1.3981537,-5.0898538,-32.203022,1.7941745999999998,4.2054067,7.3883171
640,10:45:26.734000,1.0486152,-4.0388446,-32.796756699999996,2.3280703999999997,3.5701072,7.268587599999999
641,10:45:26.743000,-1.4053360000000001,-2.9519238,-34.2930717,2.7226889,2.9580207,7.162297200000001
642,10:45:26.754000,1.7500861,-2.9160123,-30.8479614,2.9865825,1.8181471999999999,6.988811500000001
643,10:45:26.772000,0.3998145,1.2688723999999998,-28.563991499999997,2.9865825,1.8181471999999999,6.988811500000001
644,10:45:26.783000,-0.2992623,2.3318522,-27.5129814,2.6750414,0.0051007,6.782339100000001
645,10:45:26.792000,-0.7325941999999999,3.3110385,-26.5577374,2.1228199,-1.4646397,6.3681731
646,10:45:26.804000,-1.3478776000000001,4.2255845,-25.2026787,2.238884,-2.208673,6.0407495
647,10:45:26.811000,-1.5801051000000002,4.974937000000001,-23.9026814,2.238884,-2.208673,6.0407495
648,10:45:26.822000,-1.8386679,5.626132,-22.3417301,3.0623298,-3.3351076,5.0816917
649,10:45:26.831000,-1.6806574,5.539944599999999,-20.720924399999998,3.0623298,-3.3351076,5.0816917
650,10:45:26.841000,-1.8410618000000003,5.1856179000000004,-19.461628,3.6389858999999998,-3.7908127,4.600330400000001
651,10:45:26.857000,-1.9440081000000002,4.7163744,-18.1736031,4.9034762,-4.4676504,3.8306410000000004
652,10:45:26.860000,-0.9025753000000001,3.7228234,-17.3811569,4.9034762,-4.4676504,3.8306410000000004
653,10:45:26.871000,-0.7852644,3.5265076,-16.2822666,5.597418299999999,-4.876929799999999,3.4091442
654,10:45:26.879000,-0.5841601,2.9615002,-15.583189,5.597418299999999,-4.876929799999999,3.4091442
655,10:45:26.888000,-0.3998145,2.6813905,-14.3789568,5.6963787,-4.9551206,3.45557
656,10:45:26.899000,-0.1987102,2.4994389999999997,-12.8180046,5.561988400000001,-4.962451000000001,3.6571553
657,10:45:26.908000,0.0622466,2.9662883,-11.0104599,5.1026182,-4.9538989,3.9039447
658,10:45:26.920000,0.5721896,4.1633377000000005,-9.7008877,3.6194384,-4.8976994000000005,4.1421819
659,10:45:26.928000,1.7381157999999999,5.0539427,-7.285242599999999,3.6194384,-4.8976994000000005,4.1421819
660,10:45:26.939000,2.7388489,4.6182165,-5.3460225999999995,3.0159039,-4.7376528,3.9405966
661,10:45:26.947000,2.2217238,5.334052099999999,-4.5870929,3.0159039,-4.7376528,3.9405966
662,10:45:26.956000,1.0438271000000001,6.9357042,-3.7563410000000004,2.4441347,-4.3601384,3.9748049
663,10:45:26.969000,0.7349883,5.6811967,-4.407536,-0.7592399999999999,-3.5867839,3.7048028
664,10:45:26.975000,0.4165732,4.2782545,-4.7139807000000005,-0.7592399999999999,-3.5867839,3.7048028
665,10:45:26.986000,0.2585627,4.0771503,-4.3931708,-2.5747299,-3.4132983999999995,2.6357896
666,10:45:26.994000,0.22265120000000002,4.2758603,-5.633314599999999,-2.5747299,-3.4132983999999995,2.6357896
667,10:45:27.005000,1.7836037,4.6182165,-5.4705157,-3.0512043999999996,-3.3351076,2.1312153
668,10:45:27.014000,4.730739099999999,2.8322186,-1.3167541999999999,-3.1819296,-3.3766464999999997,1.3896255
669,10:45:27.024000,5.573462,0.8044171999999999,-2.0996243999999997,-2.9998918,-3.2996773999999998,0.5368583
670,10:45:27.037000,6.686717999999999,-0.6152834,-2.1882062,-2.7873107999999998,-2.7828858,-0.50039
671,10:45:27.044000,7.1368084000000005,-1.1994434999999999,-2.2217238,-2.7873107999999998,-2.7828858,-0.50039
672,10:45:27.055000,7.3450952,-1.4819472,-0.1364636,-2.2411978,-2.8134291,-1.6549243000000002
673,10:45:27.064000,6.2222624,-0.7780821,0.8929988000000001,-2.2411978,-2.8134291,-1.6549243000000002
674,10:45:27.073000,5.2502584,-0.2920801,0.49797250000000004,-2.4635525,-2.5666398999999998,-1.9774609
675,10:45:27.085000,5.2119532,-1.3646363000000001,-0.5410663,-3.988271,-2.4114802,-2.5394563999999997
676,10:45:27.092000,5.9301825,-4.1346083,0.023941,-3.988271,-2.4114802,-2.5394563999999997
677,10:45:27.104000,5.4609389,-6.1384692,-0.5051548,-4.297368,-2.4346931,-2.835115
678,10:45:27.112000,4.0915146,-6.6747475000000005,0.7469588,-4.2240644,-2.2453249,-2.7764718999999998
679,10:45:27.121000,4.1657319,-6.0020055999999995,-1.5394055,-4.0701265,-1.9203448,-2.6029863
680,10:45:27.133000,5.2550468,-5.5160035999999995,-0.6440126,-3.7854638,-2.0608437,-2.9304099
681,10:45:27.141000,4.6924334000000005,-4.3500776,-0.14604,-3.1489427000000005,-2.5348749,-3.3335805
682,10:45:27.155000,4.3285303,-5.1185832,-0.17716329999999997,-3.4165015,-2.0229702,-2.8265629
683,10:45:27.160000,4.5894876,-7.907708199999999,-0.40220859999999997,-3.4165015,-2.0229702,-2.8265629
684,10:45:27.170000,4.5703344,-11.345634500000001,-0.7924467,-4.6651087,-1.4670832,-2.7618110000000002
685,10:45:27.179000,4.4219003,-14.984664000000002,0.2753213,-4.6651087,-1.4670832,-2.7618110000000002
686,10:45:27.188000,3.4259553,-17.3260918,-0.6176775,-4.8886852,-1.1078948,-2.5565605
687,10:45:27.202000,3.3277972,-20.0122719,-2.4180398,-5.646157700000001,-0.4542695,-2.4832568
688,10:45:27.209000,3.9502629999999996,-22.614656399999998,-2.5497153,-5.646157700000001,-0.4542695,-2.4832568
689,10:45:27.219000,4.654128099999999,-24.431778,-4.390777099999999,-5.7988739,-0.27345359999999996,-2.7459287999999997
690,10:45:27.238000,6.3299971,-24.4509296,-6.713053200000001,-5.807426,-0.0645378,-2.9597312999999996
691,10:45:27.250000,8.0561428,-23.143751100000003,-6.885428,-3.6058695,0.4449233,-4.244990799999999
692,10:45:27.257000,10.088731800000001,-20.7472591,-7.1463852,-3.6058695,0.4449233,-4.244990799999999
693,10:45:27.267000,13.246547699999999,-20.309139300000002,-5.855965599999999,-2.5441868,0.6367348,-4.817981700000001
694,10:45:27.277000,16.8640327,-20.797536800000003,-4.8121386,-1.7219628,0.9959233000000001,-5.2944565
695,10:45:27.285000,19.693855300000003,-18.7936764,-4.6565218,-1.4104218000000002,1.5701361,-5.6951838
696,10:45:27.295000,21.652229300000002,-15.9470921,-4.876779099999999,-1.7036368999999998,2.5389676,-5.6316538000000005
697,10:45:27.305000,22.6002922,-13.780431699999998,-7.0769558,-2.6187122000000005,3.7044973,-5.1466269
698,10:45:27.317000,19.238977399999996,-12.1380806,-9.741587599999999,-5.817199700000001,6.0160098,-4.8509684
699,10:45:27.325000,17.4817104,-13.1124792,-13.3566771,-5.817199700000001,6.0160098,-4.8509684
700,10:45:27.334000,12.7677288,-13.366252900000001,-14.5202093,-7.7011065,6.9213114000000004,-4.1448088
701,10:45:27.345000,8.6474848,-13.4620171,-13.222606699999998,-9.472614300000002,7.6433535,-2.8522191
702,10:45:27.354000,5.257441,-14.347833600000001,-12.6169004,-10.938689199999999,7.953672900000001,-1.3604875
703,10:45:27.366000,1.0438271000000001,-14.936781900000001,-13.507505400000001,-11.9270687,7.9585595,-0.46984670000000006
704,10:45:27.374000,-2.5712618999999997,-15.3318081,-14.3837452,-12.1359844,7.7753,0.2399781
705,10:45:27.385000,-4.8312917,-16.2152309,-17.081893899999997,-10.4451103,6.1430697,1.269896
706,10:45:27.393000,-5.6740141,-16.7443275,-18.1855736,-10.4451103,6.1430697,1.269896
707,10:45:27.402000,-4.7020102,-16.0189152,-18.0203819,-6.347430200000001,4.3361316,1.3578606000000002
708,10:45:27.411000,-2.9854412,-13.9192896,-16.4474583,-6.347430200000001,4.3361316,1.3578606000000002
709,10:45:27.421000,-1.8626089,-10.641769400000001,-15.2719564,-4.237503500000001,3.1962581,1.2417963
710,10:45:27.433000,-0.20110429999999999,-7.907708199999999,-14.7356777,-0.3853908,1.4809499,1.3383128999999998
711,10:45:27.441000,0.0813994,-6.657988499999999,-15.8273869,-0.3853908,1.4809499,1.3383128999999998
712,10:45:27.451000,-1.6327753999999999,-4.630187,-17.898281100000002,1.6744450000000002,0.8994066999999999,1.8221177
713,10:45:27.461000,-4.2231898,-3.1410575,-20.9747009,1.6744450000000002,0.8994066999999999,1.8221177
714,10:45:27.470000,-5.3986925999999995,-2.3198817000000003,-22.274694399999998,1.8125005,0.8077770000000001,2.2240667000000003
715,10:45:27.482000,-6.2653565,-1.8243033,-21.3960609,2.0226381,0.0674089,2.3364658
716,10:45:27.490000,-7.1751142,-0.48121379999999997,-20.8813305,2.0226381,0.0674089,2.3364658
717,10:45:27.500000,-6.3778790999999995,0.2298335,-16.0524311,1.7514140999999999,-0.9026441999999999,2.7750666
718,10:45:27.509000,-6.9764037,0.6918946,-12.375096300000001,1.7514140999999999,-0.9026441999999999,2.7750666
719,10:45:27.518000,-9.023358300000002,5.5902205,-13.6535454,1.6500105,-1.2520586999999999,2.7323062
720,10:45:27.531000,-7.335518400000001,6.9237337,-9.9426918,1.2663875,-2.0449612,2.3144746
721,10:45:27.537000,-6.576589599999999,2.1379302000000004,-9.6123056,1.2663875,-2.0449612,2.3144746
722,10:45:27.548000,-5.9684882,-3.9550512,-1.1491673999999998,4.9340196,-2.70103,1.1281754
723,10:45:27.557000,-11.2187471,1.041433,-16.368452100000003,4.9340196,-2.70103,1.1281754
724,10:45:27.567000,-12.4445248,9.6673708,-20.081699399999998,5.0818486,-3.1249702,1.6975012999999999
725,10:45:27.579000,-4.3955655,13.6822739,-0.8211759,3.8112497000000003,-4.0400453,1.7463706
726,10:45:27.586000,-1.1443793,7.9891076000000005,-2.8896773,3.5864515,-4.8024044,1.0903018
727,10:45:27.599000,2.7484252000000002,2.2839704,0.1436459,4.7116647,-4.9978809,1.2014791999999999
728,10:45:27.606000,0.6655594,-0.3806617,1.9631610000000002,4.7116647,-4.9978809,1.2014791999999999
729,10:45:27.616000,-1.8458501,-3.6007245,0.217863,8.3353138,-4.6105928,2.2106277999999997
730,10:45:27.625000,-2.475498,-6.0020055999999995,-3.9574451,8.3353138,-4.6105928,2.2106277999999997
731,10:45:27.635000,-1.6974159,-8.9491405,-7.5414109,9.333467500000001,-4.3112693,3.0866077
732,10:45:27.648000,-2.7723663,-9.293891,-9.588364599999998,8.554003699999999,-4.0828061,4.226481400000001
733,10:45:27.654000,-3.1961217,-8.4822922,-10.9051199,7.298066099999999,-3.9716287000000006,5.4359932
734,10:45:27.665000,-2.8992536,-7.797579300000001,-9.6721592,7.298066099999999,-3.9716287000000006,5.4359932
735,10:45:27.674000,-1.9320377,-8.9515352,-5.1760416,5.338411799999999,-4.1609964,6.0517449
736,10:45:27.681000,-1.9009144,-10.158161199999999,-1.9751314999999998,5.338411799999999,-4.1609964,6.0517449
737,10:45:27.691000,-1.9631610000000002,-11.8962774,-0.8858166,4.0079484,-3.9655199,5.9222417
738,10:45:27.702000,-1.6208049,-13.892954800000002,-2.2241178,2.0934982,-3.667418,5.4958582
739,10:45:27.715000,3.1793633,-15.6741638,-5.8416009,-1.6266678999999997,-3.6319877999999997,2.845927
740,10:45:27.722000,4.5511813,-20.1559181,-7.3235478,-1.6266678999999997,-3.6319877999999997,2.845927
741,10:45:27.731000,18.3148556,-24.6185188,-4.601458099999999,-2.4269006,-4.0278282,-1.6060551
742,10:45:27.741000,28.2264233,-22.6601448,0.2537745,-2.4269006,-4.0278282,-1.6060551
743,10:45:27.750000,24.0822392,-17.0747128,5.7218962,-2.5918341000000003,-3.4499502,-4.1435870999999995
744,10:45:27.762000,20.311534899999998,-17.1178055,6.713053200000001,-5.572853599999999,-0.8782097,-5.2675781
745,10:45:27.770000,20.696983300000003,-19.246160500000002,2.4347985,-5.572853599999999,-0.8782097,-5.2675781
746,10:45:27.780000,22.561986899999997,-18.0778408,-0.9049693000000001,-7.5874858,1.1547482,-7.237006200000001
747,10:45:27.800000,25.1978893,-19.2844658,-3.0476878,-7.5874858,1.1547482,-7.237006200000001
748,10:45:27.812000,21.7623577,-22.557197600000002,-5.456151,-5.1733484,4.3092537,-6.9865518
749,10:45:27.818000,17.776184100000002,-21.2260799,-5.5902205,-5.1733484,4.3092537,-6.9865518
750,10:45:27.830000,14.920023,-17.8887062,-3.6079068,-7.3297005,5.1681294,-4.386711099999999
751,10:45:27.839000,11.0200367,-17.0699234,-2.1690536,-7.3297005,5.1681294,-4.386711099999999
752,10:45:27.848000,11.422245,-16.880790700000002,-2.7819428,-11.4628115,6.0050144,-0.4991682
753,10:45:27.861000,0.6152834,-19.6723099,-14.434021,-11.4628115,6.0050144,-0.4991682
754,10:45:27.867000,-6.0642519,-20.4384212,-17.6804199,-12.1286535,5.766776999999999,0.7494392
755,10:45:27.879000,-9.7703171,-21.5660419,-14.2305231,-7.7121019,3.9977123999999997,2.3364658
756,10:45:27.886000,-14.326287300000002,-13.2968245,-21.3409958,-7.7121019,3.9977123999999997,2.3364658
757,10:45:27.896000,-12.2673616,-3.5911478999999997,-19.914114,-4.213069,0.0368657,2.0921199
758,10:45:27.905000,-3.0644464,-0.3184151,-0.6655594,-4.213069,0.0368657,2.0921199
759,10:45:27.916000,0.3974204,-1.4963118,1.0988913999999999,-1.7903796000000003,-0.9197484,1.5472286
760,10:45:27.927000,0.6033128000000001,0.7349883,-7.3929772,-2.2815149,1.5896838,2.9998647999999997
761,10:45:27.935000,1.9487964,-5.7314725,-14.7069492,-2.2815149,1.5896838,2.9998647999999997
762,10:45:27.945000,-2.9854412,-8.1710587,-17.9078579,0.5687799,0.8432072,1.7463706
763,10:45:27.955000,-7.1439905,-5.855965599999999,-16.983735999999997,0.5687799,0.8432072,1.7463706
764,10:45:27.964000,-9.246008900000001,-5.6500731,-12.580988900000001,3.5131477999999996,0.0136528,1.8587697
765,10:45:27.977000,-10.9290609,-0.0502761,-9.415989900000001,6.2925825,-0.30155329999999997,2.2521665
766,10:45:27.984000,-8.087266,1.0103096999999999,-5.8846945999999996,6.2925825,-0.30155329999999997,2.2521665
767,10:45:27.994000,-7.8215202999999995,-1.7883917,-10.3401117,7.7073455,-1.1958592,2.078681
768,10:45:28.003000,-9.4686613,-2.3940987999999996,-16.983735999999997,7.7073455,-1.1958592,2.078681
769,10:45:28.013000,-13.148389800000002,3.0045941000000003,-17.259058,8.7067204,-1.716316,1.9809424999999998
770,10:45:28.025000,-10.9960957,11.3671808,-12.4469194,8.749480199999999,-1.9386709,2.6015811
771,10:45:28.032000,-6.025946599999999,10.2682896,-9.188550900000001,7.7085671,-2.5678616,3.4677873
772,10:45:28.043000,-2.8082778,9.2484026,-8.429621699999998,8.462373699999999,-3.9496373999999994,1.8709869
773,10:45:28.052000,-0.5506426999999999,6.4832196,-7.0242853,8.462373699999999,-3.9496373999999994,1.8709869
774,10:45:28.062000,-0.4931844,4.1417909,-7.6850572,8.1544981,-3.6955178,2.4794083
775,10:45:28.071000,-2.4276164000000002,2.4778922000000003,-8.3793459,8.1544981,-3.6955178,2.4794083
776,10:45:28.081000,-2.7292726000000003,-0.1963161,-9.018569900000001,6.6981969,-2.9820278,3.2271066000000004
777,10:45:28.092000,-2.135536,-3.3876498,-8.1854239,5.4337067999999995,-3.035784,3.1623549
778,10:45:28.100000,-1.3383013000000001,-5.8104777,-3.3708911,3.8283541,-2.9942451,3.5471997
779,10:45:28.110000,-0.2777155,-6.8710637000000006,0.9480630999999999,1.9090171000000002,-2.786551,4.2643547
780,10:45:28.119000,0.5458545,-9.916357000000001,1.0629798000000001,1.9090171000000002,-2.786551,4.2643547
781,10:45:28.129000,1.1324087,-13.3423119,5.4633335999999995,0.207148,-2.6240611,4.6663041
782,10:45:28.139000,1.7524803,-9.463872,5.8104777,-0.7042621,-2.5287662,4.7835898
783,10:45:28.148000,1.3215424999999998,-4.7067981,3.0788109,-2.2534151000000002,-2.5629747000000003,4.9766231
784,10:45:28.160000,4.3213482,-1.3670303999999998,3.1003580000000004,-2.4586656000000002,-3.3008992999999993,3.6461599000000002
785,10:45:28.168000,2.9734707,-2.5568974,1.4556118999999998,-2.4586656000000002,-3.3008992999999993,3.6461599000000002
786,10:45:28.178000,6.7992406,-8.2644291,-0.8906046999999999,-2.0738208,-3.8225777,2.5221686
787,10:45:28.187000,12.1548386,-20.1056423,-5.0323954,-2.5845039,-3.6942961000000003,0.7824259
788,10:45:28.196000,23.2419109,-30.8623257,-0.9145458000000001,-3.6767298999999998,-2.8012118,-1.158902
789,10:45:28.207000,28.209665299999998,-26.397331199999996,1.9703432,-4.0029316,-0.6607418,-4.5382055999999995
790,10:45:28.215000,25.731773399999998,-24.1037865,7.0386505,-4.0029316,-0.6607418,-4.5382055999999995
791,10:45:28.227000,21.9634628,-24.8818684,1.26169,-8.2606583,2.2017702999999997,-5.2895694
792,10:45:28.236000,17.8695545,-20.3785686,-10.4861526,-8.2606583,2.2017702999999997,-5.2895694
793,10:45:28.245000,19.049844699999998,-10.493334800000001,-13.845072699999998,-11.3443041,4.005043,-5.4349551
794,10:45:28.257000,21.2093201,-9.4926023,-14.431627300000002,-13.380927100000001,6.1809435,-4.172908799999999
795,10:45:28.264000,14.393322,-13.4979286,-22.396793399999996,-13.380927100000001,6.1809435,-4.172908799999999
796,10:45:28.277000,12.281726800000001,-20.7688065,-23.1916332,-18.4083443,8.134488099999999,-0.9670907
797,10:45:28.284000,-2.9303767999999994,-22.5452271,-21.2979012,-18.4083443,8.134488099999999,-0.9670907
798,10:45:28.293000,-8.2644291,-26.074129100000004,-18.2885208,-18.920248,8.6158495,1.4775901000000002
799,10:45:28.304000,-12.3894606,-21.5636482,-15.6430407,-17.364986399999996,7.5614977,2.9363351000000004
800,10:45:28.313000,-9.6027298,-14.917629199999999,-15.367719699999999,-12.909339,5.7447858,3.4775612000000002
801,10:45:28.324000,-5.9182119,-7.8143387,-19.8925667,-1.3114617,2.1333535,2.8911309
802,10:45:28.332000,-4.946208,-2.5353506,-23.232334100000003,-1.3114617,2.1333535,2.8911309
803,10:45:28.343000,-4.0915146,1.7022042000000002,-26.050188100000003,6.0531235,-1.2483938,0.4378982
804,10:45:28.352000,-2.1283537999999997,2.6742082000000003,-19.9284782,6.0531235,-1.2483938,0.4378982
805,10:45:28.362000,-2.2983347999999997,4.7977738,-14.510633499999999,7.9712385999999995,-1.8775842,-0.09111060000000001
806,10:45:28.373000,0.1316754,5.9756703,-9.169398300000001,8.3316488,-1.6650033,0.39635940000000003
807,10:45:28.381000,-0.6488007,3.6605771000000003,-8.3673754,7.2553053,-1.9240099999999998,1.2075878
808,10:45:28.392000,-9.3369846,2.2360882999999996,-8.216547,4.2131991,-1.2935976999999999,2.4293172000000003
809,10:45:28.400000,-5.2191353,1.3957596,-7.5414109,4.2131991,-1.2935976999999999,2.4293172000000003
810,10:45:28.410000,-9.193339300000002,6.581377499999999,-8.9706879,3.3897531,-1.2520586999999999,2.1996322
811,10:45:28.428000,-9.0042048,4.3644419,-8.2452765,4.8191767,-1.5758171,2.909457
812,10:45:28.440000,-9.811017,1.4819472,-9.5261192,6.3927646,-1.8849146,2.371896
813,10:45:28.447000,-11.295357699999999,5.927788700000001,-13.311188699999999,6.742178900000001,-2.2636509,2.4781864
814,10:45:28.456000,-6.0283403,11.6065912,-6.638835899999999,6.742178900000001,-2.2636509,2.4781864
815,10:45:28.466000,-0.2944742,5.5782499,-6.5718012,5.7293652999999996,-2.7523427000000003,2.9729869
816,10:45:28.476000,-2.0493486,2.8537657000000003,-10.565157899999999,5.5351105,-3.6429834000000003,1.6498538
817,10:45:28.487000,-2.8322186,2.4204338,-8.9228058,5.5351105,-3.6429834000000003,1.6498538
818,10:45:28.495000,-2.3821282000000004,2.7651839,-9.049693099999999,6.5980148000000005,-4.6167016,1.4580423999999998
819,10:45:28.505000,-2.3988869,2.8944654,-7.809549799999999,8.7323761,-4.934351400000001,1.2894437
820,10:45:28.514000,-2.2839704,2.5568974,-7.108078999999999,8.7323761,-4.934351400000001,1.2894437
821,10:45:28.524000,-0.5530368,0.7110473,-3.2751269,8.2742281,-4.8109565000000005,1.5191288
822,10:45:28.536000,1.1611378,-1.7261453000000002,1.6088343999999999,7.448338499999999,-4.9856639000000005,1.7219359
823,10:45:28.544000,1.1563497999999999,-3.5696013,4.316559799999999,6.518602400000001,-5.1237192,1.9210778000000002
824,10:45:28.553000,0.0311233,-4.3213482,5.9182119,5.1136136,-4.7168832,2.6235722999999997
825,10:45:28.564000,-1.2138082000000001,-4.390777099999999,6.4329433,3.2932365,-4.0241628,3.2185544999999998
826,10:45:28.574000,0.5051548,-7.819126600000001,8.776765800000002,1.3897821000000001,-3.4902672999999997,3.306519
827,10:45:28.584000,-2.5090156,-10.4789696,11.034400900000001,-0.2632178,-3.1408527000000004,3.0548427000000005
828,10:45:28.593000,-2.473104,-7.1128674,3.5001721,-1.7854927999999999,-2.6216176,3.0597296000000003
829,10:45:28.603000,1.2592959,-8.7432489,-0.2825037,-4.527053400000001,-2.1805732000000004,2.7982795
830,10:45:28.612000,12.490013099999999,-13.2010603,-0.9408808000000001,-6.2484703,-2.6558261,1.2784481
831,10:45:28.622000,26.083705899999998,-17.3165169,-3.2823095,-7.5716033,-2.0083094,-1.9420307
832,10:45:28.632000,35.8803558,-29.8472309,-4.0292683,-7.5716033,-2.0083094,-1.9420307
833,10:45:28.642000,28.420345299999997,-32.6794472,-1.0438271000000001,-7.2747231,0.5609877,-2.7117202000000002
834,10:45:28.654000,19.516691199999997,-27.3406086,-1.0366447,-7.6534591,3.8804266000000003,-4.5601969
835,10:45:28.661000,17.2877884,-29.059570299999997,-10.9338493,-7.6534591,3.8804266000000003,-4.5601969
836,10:45:28.671000,20.3019581,-31.355512599999997,-12.7461824,-8.9289446,5.149803599999999,-4.9939108
837,10:45:28.680000,21.1087685,-24.2546139,-10.9218779,-9.6790867,5.5994,-4.9206071
838,10:45:28.690000,20.2205582,-20.8358421,-12.3152437,-10.2520771,7.876703699999999,-3.0684652000000003
839,10:45:28.699000,11.7095366,-21.913185100000003,-23.2754288,-10.2520771,7.876703699999999,-3.0684652000000003
840,10:45:28.709000,7.270877799999999,-20.550943399999998,-26.373392100000004,-11.9881554,8.5278854,-1.8174143
841,10:45:28.720000,0.31362690000000004,-13.6798801,-20.0840931,-12.937439,7.6494622,-1.2505318
842,10:45:28.729000,-3.3086444999999998,-12.7078762,-13.160361300000002,-12.1738577,6.28479,0.3707031
843,10:45:28.740000,-6.7800875,-10.850055699999999,-10.510093699999999,-10.156783099999998,4.4644132,2.7323062
844,10:45:28.749000,-14.7045546,-8.0561428,-13.478776000000002,-10.156783099999998,4.4644132,2.7323062
845,10:45:28.758000,-9.0616636,-4.3261366,-21.312267300000002,-3.0597564999999998,2.5695107000000004,2.1055589
846,10:45:28.770000,-7.9771371,-1.2784487,-23.282609899999997,1.8870259999999999,0.8419853999999999,0.9717939
847,10:45:28.778000,-6.8423338000000005,0.5027608,-20.9483643,5.6010838,-0.09263760000000001,0.6138272
848,10:45:28.789000,-2.8681302000000004,-1.8841558,-6.306056,5.6010838,-0.09263760000000001,0.6138272
849,10:45:28.798000,-2.7987015,1.5777111000000001,-4.6230044,7.9639087,-0.4762607,1.0524281
850,10:45:28.806000,-1.0055215,4.043633,-6.5047665,6.4306377999999995,-0.3039968,1.7854657999999999
851,10:45:28.818000,-0.8858166,3.1817572,-8.783947900000001,6.4306377999999995,-0.3039968,1.7854657999999999
852,10:45:28.825000,-1.9248554,2.1211715,-9.6123056,5.1649265,-0.0315511,2.2057407
853,10:45:28.835000,-3.4259553,3.1841512,-9.382473,4.372024099999999,0.0845132,2.5453815
854,10:45:28.846000,-4.295013,5.499245200000001,-9.4902067,4.1288996,0.049083,2.6919892000000005
855,10:45:28.855000,-3.6294537000000004,4.6277928,-8.8126774,4.3561416,0.08573489999999999,2.6895456
856,10:45:28.868000,-4.630187,0.8068113,-10.601069500000001,4.7617555,-0.13906329999999997,2.4207652000000004
857,10:45:28.875000,-4.8959322,-3.809011,-11.118194599999999,6.031132700000001,-0.483591,1.7427053
858,10:45:28.888000,-7.424099900000001,-0.8163876999999999,-15.386873199999998,8.5320129,-1.4573095,1.3089913
859,10:45:28.894000,-7.3259419999999995,12.0303459,-12.7844868,8.5320129,-1.4573095,1.3089913
860,10:45:28.904000,-3.0835993,7.3187599,-7.529440400000001,6.1068796999999995,-2.3259592000000002,1.7646965000000001
861,10:45:28.914000,-4.4745703,4.529635,-8.020231200000001,6.1068796999999995,-2.3259592000000002,1.7646965000000001
862,10:45:28.923000,-4.4841470999999995,3.5432663,-5.5112157,6.7727222000000005,-2.8549678,1.1868185
863,10:45:28.935000,-4.869597,2.4180398,-5.889483,7.6560326000000005,-3.2544734,1.3493085
864,10:45:28.942000,-5.2598348,1.9823137999999998,-7.026680000000001,7.6560326000000005,-3.2544734,1.3493085
865,10:45:28.953000,-4.3764124,1.3598481000000002,-6.1001635,8.2375755,-3.8005864999999996,1.6461887
866,10:45:28.972000,-1.9990726000000003,-1.7069923999999999,-2.4611335,8.2375755,-3.8005864999999996,1.6461887
867,10:45:28.982000,-1.1443793,-3.9742040999999997,1.065374,6.4978333,-3.5342495,2.1397673999999998
868,10:45:28.991000,-0.4620611,-6.0211587,2.3414285,5.4764671,-3.4291809,2.520947
869,10:45:29.003000,-0.6320420999999999,-6.856699000000001,3.9981451,3.4532830999999997,-2.9600367999999997,3.6290555
870,10:45:29.011000,0.10773440000000001,-9.226857199999998,7.3115773,3.4532830999999997,-2.9600367999999997,3.6290555
871,10:45:29.020000,-0.7900524999999999,-10.7997789,9.293891,2.3048575000000002,-2.5299878,4.0102353
872,10:45:29.029000,-0.23222759999999998,-9.8493223,10.7997789,1.1417711000000001,-2.0535133,4.5099225
873,10:45:29.039000,0.3279915,-8.8677416,8.884499499999999,-0.8533132,-1.8519279999999998,5.0438184999999995
874,10:45:29.051000,2.2696054,-8.623543699999999,7.366642,-3.7940158999999998,-2.5605311,3.3993703999999996
875,10:45:29.059000,4.747498,-10.490941000000001,6.823181599999999,-3.7940158999999998,-2.5605311,3.3993703999999996
876,10:45:29.069000,7.946013499999999,-14.510633499999999,3.6510005,-4.994975599999999,-2.5214357000000005,0.9742374
877,10:45:29.079000,13.1052971,-22.4877701,1.9535846999999997,-4.994975599999999,-2.5214357000000005,0.9742374
878,10:45:29.088000,19.373048800000003,-23.7925549,2.9974117000000002,-5.057283900000001,-1.6503427,-0.5089421
879,10:45:29.101000,21.8030586,-18.6715755,6.545465900000001,-4.7530732,-0.08164199999999999,-4.2584295
880,10:45:29.108000,20.4719372,-19.7824383,3.9622335,-4.7530732,-0.08164199999999999,-4.2584295
881,10:45:29.118000,22.3489113,-21.611530300000002,3.5169311000000003,-7.935678500000001,1.8731251,-6.1056848
882,10:45:29.127000,21.1638317,-21.3816967,0.8906046999999999,-7.935678500000001,1.8731251,-6.1056848
883,10:45:29.138000,18.3986473,-21.3433895,-5.870329900000001,-9.6412125,3.3269830000000002,-6.3659129
884,10:45:29.148000,18.240638699999998,-20.512638100000004,-9.018569900000001,-10.3412638,4.856588400000001,-6.050706900000001
885,10:45:29.155000,18.0754452,-20.2468948,-10.1821022,-10.4658804,5.9072757000000005,-5.7025137
886,10:45:29.167000,15.054093400000001,-21.8485451,-14.3957157,-10.8214035,7.945120299999999,-3.5388309999999996
887,10:45:29.175000,10.7590799,-20.7185307,-15.4084196,-10.8214035,7.945120299999999,-3.5388309999999996
888,10:45:29.185000,2.7196963,-20.4719372,-19.7345562,-13.0388422,7.251178299999999,0.4232375
889,10:45:29.195000,-1.2497194999999999,-14.3358631,-17.792942,-13.0388422,7.251178299999999,0.4232375
890,10:45:29.204000,-4.8887496,-9.4686613,-18.7194576,-12.7126408,6.041666,2.3596787
891,10:45:29.216000,-5.987640900000001,-5.6165557,-17.7259083,-8.895957899999999,2.9873423999999997,4.3999667
892,10:45:29.224000,-5.429815799999999,-0.9791864,-15.772322699999998,-8.895957899999999,2.9873423999999997,4.3999667
893,10:45:29.234000,-4.9988779999999995,3.5432663,-18.2621861,-1.9382088,1.0851095,2.4940689
894,10:45:29.243000,-0.8331464,2.1522946,-12.286515199999998,2.0947201,0.039309199999999996,1.3297608
895,10:45:29.253000,-1.0605857,3.610301,-11.1541061,5.3628464000000005,-0.3467574,0.9155943999999999
896,10:45:29.265000,0.5027608,3.6749415,-11.7526312,6.5027199,-0.7267151999999999,0.985233
897,10:45:29.272000,1.7859976000000002,0.4692433,-7.7496977,6.5027199,-0.7267151999999999,0.985233
898,10:45:29.282000,0.3615089,0.18434560000000003,-6.9285220999999995,6.842361,-0.8305621999999999,1.6865058000000002
899,10:45:29.292000,-1.8769734,1.5082823,-6.3898497,6.842361,-0.8305621999999999,1.6865058000000002
900,10:45:29.301000,-3.6270595,2.353399,-6.9165516,4.6408043,-1.0516952,2.7579625
901,10:45:29.310000,-4.1322145,4.941420099999999,-7.347488900000001,4.6408043,-1.0516952,2.7579625
902,10:45:29.319000,-4.759468599999999,4.0460272,-7.3139715,3.7012942000000004,-1.1372163,2.7799537
903,10:45:29.332000,-5.906241400000001,1.4173065,-8.7145185,5.1942477,-1.4389834,1.9943817
904,10:45:29.339000,-6.602924300000001,-0.9911568999999999,-9.870868699999999,5.1942477,-1.4389834,1.9943817
905,10:45:29.349000,-9.3752909,7.560564,-13.8666201,6.6248932,-2.0669525,1.6926144
906,10:45:29.359000,0.1915279,8.290763900000002,0.2298335,6.2547087999999995,-2.1255952999999996,2.1715324000000003
907,10:45:29.369000,0.33756790000000003,4.2758603,-7.9986839000000005,4.121569200000001,-2.5031098999999997,2.2301752999999995
908,10:45:29.385000,-1.8697912,3.5169311000000003,-7.7185745,4.474648999999999,-3.1042007999999996,0.5845057
909,10:45:29.388000,-3.3972260999999997,3.2128806,-6.763329,5.8002257,-3.685744,0.7995300999999999
910,10:45:29.398000,-4.3596539000000005,2.2624232999999996,-7.1392026,5.8002257,-3.685744,0.7995300999999999
911,10:45:29.408000,-2.2743938,0.5697955,-5.422633599999999,6.371995,-3.6234357000000004,0.9326986999999999
912,10:45:29.417000,-0.31362690000000004,-2.8585539,-2.0756836,6.4819508,-3.7443869,0.5197541
913,10:45:29.430000,1.2066257,-5.4657273,-0.5865541999999999,6.703083500000001,-3.8628948,0.24730850000000001
914,10:45:29.437000,1.8266973000000002,-8.1614828,0.1867397,7.053719999999999,-3.7761519,0.6272663
915,10:45:29.451000,1.8266973000000002,-10.2347717,1.2497194999999999,6.924216700000001,-3.3265555,1.9650599999999998
916,10:45:29.456000,0.7230178,-9.4590836,0.0263351,6.924216700000001,-3.3265555,1.9650599999999998
917,10:45:29.466000,-0.775688,-8.2428818,-0.5314899000000001,5.973711,-2.7046952,2.7494104
918,10:45:29.477000,0.5147311999999999,-11.151712400000001,5.1497064,4.740986299999999,-2.3516154,3.45557
919,10:45:29.496000,0.459667,-5.2646232,6.1552280999999995,3.8332410000000006,-2.3736064,3.4885566
920,10:45:29.505000,2.8106720000000003,-5.7171078,9.6745529,0.21203490000000003,-2.0486264,4.322998
921,10:45:29.514000,5.3962984,-7.8454614000000005,12.7461824,-1.4030913999999999,-2.6106222000000003,4.2325897
922,10:45:29.524000,7.13202,-8.9754763,11.0391893,-2.5954992999999997,-2.9575932000000003,3.7671111000000006
923,10:45:29.533000,10.82372,-13.6463633,6.820787400000001,-4.6296787,-2.6533825,3.505661
924,10:45:29.549000,14.702159900000002,-21.441547399999997,2.8968594,-7.3907871,-1.4194357,1.3212087
925,10:45:29.552000,14.773983,-25.3128052,0.055064300000000004,-7.3907871,-1.4194357,1.3212087
926,10:45:29.563000,15.616705900000001,-22.329759600000003,-0.43333190000000005,-7.6717849000000005,-0.6020988,-0.25604410000000005
927,10:45:29.573000,17.551137899999997,-23.701578100000003,-3.636636,-7.929570200000001,0.0649655,-1.8772790000000001
928,10:45:29.583000,20.0625477,-22.174142800000002,-5.5543089000000005,-10.1885471,2.2543046,-4.3732724
929,10:45:29.592000,20.0769119,-20.589250600000003,-9.767923399999999,-10.1885471,2.2543046,-4.3732724
930,10:45:29.601000,19.169548000000002,-19.5047226,-14.4412041,-11.7096004,3.8132315,-4.599292299999999
931,10:45:29.613000,17.3907337,-19.612455399999998,-16.366058300000002,-13.774323499999998,6.6268744,-3.6048044999999997
932,10:45:29.621000,12.0710459,-20.979488399999997,-19.7369499,-13.774323499999998,6.6268744,-3.6048044999999997
933,10:45:29.631000,5.2502584,-25.5665798,-20.8478127,-14.4218397,8.266434700000001,-1.3959177
934,10:45:29.640000,2.3079112,-23.9122581,-17.6732368,-14.4218397,8.266434700000001,-1.3959177
935,10:45:29.650000,-5.5064268,-18.4872303,-16.5120983,-12.8861265,7.588375599999999,-0.7422924
936,10:45:29.662000,-9.3992319,-15.0516987,-14.3741693,-8.6479464,5.6653733,2.8801354999999997
937,10:45:29.669000,-10.9625778,-11.005672500000001,-15.1833744,-8.6479464,5.6653733,2.8801354999999997
938,10:45:29.680000,-8.9659004,-7.357065700000001,-18.9828072,-2.4440049999999998,3.1974797,3.0939381
939,10:45:29.689000,-4.7355275,-4.1968551,-19.9380531,-2.4440049999999998,3.1974797,3.0939381
940,10:45:29.698000,-3.1242987999999996,-1.4220946,-17.9748936,0.6872877,1.7839388999999999,2.3291353999999997
941,10:45:29.711000,-1.3526658,-2.3557932,-12.897009800000001,3.5314739,0.9385020000000001,1.789131
942,10:45:29.718000,-2.0014665000000003,-2.6526616,-8.815072099999998,5.291986,0.5707615,1.6706233
943,10:45:29.731000,-3.442714,-0.42854369999999997,-9.049693099999999,5.4398155,0.022205000000000003,2.3193617000000004
944,10:45:29.737000,-3.4068023999999997,0.7780821,-11.5156155,5.4398155,0.022205000000000003,2.3193617000000004
945,10:45:29.758000,-3.6917002,1.2090199,-13.2250013,5.015875299999999,-0.36263979999999996,2.520947
946,10:45:29.760000,-3.6557887000000004,1.4556118999999998,-11.953735400000001,5.015875299999999,-0.36263979999999996,2.520947
947,10:45:29.766000,-3.7946465,2.9902293999999996,-10.9290609,5.6108575,-0.853775,2.7640712000000005
948,10:45:29.780000,-4.5032997,5.48488,-9.890022300000002,6.097106,-0.8684358,2.6748847999999996
949,10:45:29.785000,-3.5959363,5.7865367,-8.3506165,6.3732166,-1.0651343,2.5062861
950,10:45:29.796000,-3.2751269,3.8616812000000005,-7.570139900000001,7.3115048,-1.1188903000000001,2.1055589
951,10:45:29.804000,-3.5001721,-1.3718187,-9.0903931,7.3115048,-1.1188903000000001,2.1055589
952,10:45:29.813000,-6.5670128,-0.28968590000000005,-18.544687300000003,8.634637800000002,-1.3388016,1.8367785
953,10:45:29.830000,-8.233305900000001,17.5846558,-12.260180499999999,6.516159099999999,-1.8507063000000001,2.7775102
954,10:45:29.833000,3.270339,8.5086269,3.7515528,6.516159099999999,-1.8507063000000001,2.7775102
955,10:45:29.844000,0.9121516,4.3309245,-11.175653500000001,7.6071634,-2.4627929,0.6443705
956,10:45:29.853000,-0.43333190000000005,3.809011,-9.2244616,7.6071634,-2.4627929,0.6443705
957,10:45:29.862000,-1.9942843000000001,1.6830512999999998,-5.9325767,7.5033164,-2.7877728999999998,1.4421598999999998
958,10:45:29.872000,-3.4522904999999997,1.6567163,-9.0903931,8.0958548,-2.9746973999999997,1.8722086
959,10:45:29.883000,-1.9703432,0.5769778,-5.7123194,7.7782054,-2.6655998,1.7378183999999997
960,10:45:29.894000,-0.4692433,-1.0988913999999999,-2.3103054,6.1435318,-2.9282717999999996,1.1611621
961,10:45:29.902000,-0.9336985000000001,-1.2042316000000002,-2.8824949,6.1435318,-2.9282717999999996,1.1611621
962,10:45:29.912000,0.9552454,-0.8283582,-3.1386635,4.6579084,-2.985693,2.4879603
963,10:45:29.929000,-1.067768,-2.4132514,1.1348027,3.8283541,-2.9465976,3.0682817000000004
964,10:45:29.931000,-1.7476921000000003,-1.9009144,0.8882107,2.6188418999999996,-2.6729302,3.3114059
965,10:45:29.944000,-0.6918946,-4.9557843,4.476964499999999,2.6188418999999996,-2.6729302,3.3114059
966,10:45:29.951000,-0.7014709,-8.62115,10.627404199999999,1.1173364,-2.2746465,2.9913127
967,10:45:29.968000,-2.0637131,-5.8080834999999995,8.312311200000002,1.1173364,-2.2746465,2.9913127
968,10:45:29.979000,-0.6942885999999999,-5.8846945999999996,7.7951856,-2.8557277,-2.2868638,3.5533082
969,10:45:29.989000,1.3598481000000002,-7.4600115,6.2222624,-4.5197229000000005,-3.0724359,3.0169692
970,10:45:29.999000,4.055603,-12.1332922,3.3996203,-6.3962994,-3.4438415,2.3645656
971,10:45:30.009000,10.565157899999999,-22.2986355,-6.7776933,-8.512334800000001,-3.4817152,1.8783172
972,10:45:30.019000,25.6360092,-39.6199417,-12.346366900000001,-10.843394300000002,-2.8732938999999997,1.2002574
973,10:45:30.028000,28.8728294,-34.039295200000005,-7.3594593999999995,-9.9026632,0.2738812,-1.4264609
974,10:45:30.040000,22.066408199999998,-22.293848,-4.2878308,-9.9026632,0.2738812,-1.4264609
975,10:45:30.047000,17.0986538,-27.8697033,-12.054287,-8.0480776,1.2549299999999999,-2.4698179
976,10:45:30.058000,18.3483715,-30.941331899999994,-13.0119267,-8.463465699999999,3.0374331000000003,-3.3238068
977,10:45:30.067000,14.551332500000001,-25.7772617,-14.311922099999999,-9.293020199999999,4.239615000000001,-3.7721812999999993
978,10:45:30.078000,12.358338400000001,-20.527002300000003,-16.4259129,-8.674824699999999,5.7643337,-3.5913652999999996
979,10:45:30.085000,13.3135834,-17.6253548,-13.9360495,-8.674824699999999,5.7643337,-3.5913652999999996
980,10:45:30.096000,4.4506296999999995,-21.3529663,-14.8170767,-9.241706800000001,6.0978655999999996,-3.4203233999999996
981,10:45:30.107000,7.1368084000000005,-24.3216496,-14.5369682,-11.4554806,6.689182799999999,-2.3977357999999995
982,10:45:30.114000,-1.8578206000000002,-22.7846375,-13.375829699999999,-11.4554806,6.689182799999999,-2.3977357999999995
983,10:45:30.127000,-6.5263127999999995,-22.499740600000003,-13.318370800000002,-9.6790867,5.1779032,0.9375855
984,10:45:30.135000,-7.960378599999999,-21.9467049,-11.3815451,-9.6790867,5.1779032,0.9375855
985,10:45:30.144000,-9.0879993,-14.5130272,-14.975088099999999,-6.826348299999999,3.7325970999999996,1.4702597
986,10:45:30.158000,-6.6148949,-7.335518400000001,-19.9165077,1.1808664,1.3880985000000001,1.2979958
987,10:45:30.164000,-3.9191399,-4.730739099999999,-17.0699234,1.1808664,1.3880985000000001,1.2979958
988,10:45:30.176000,-4.419506500000001,-3.3732852999999996,-10.3329296,8.2168064,0.0405309,-0.2426051
989,10:45:30.182000,-6.0762224,-1.2185962,-7.273272,8.2168064,0.0405309,-0.2426051
990,10:45:30.191000,-6.2916913,2.1786296000000003,-7.9986839000000005,9.5265007,0.17858629999999998,0.1324659
991,10:45:30.202000,-5.7051377,3.3277972,-8.0944481,9.471522300000002,-0.11585050000000001,0.6382619
992,10:45:30.212000,-4.1082735,2.0062547,-8.0657187,9.119664199999999,-0.03277290000000001,1.2576787
993,10:45:30.226000,-4.1034851,2.0852599,-9.076027900000001,7.3127265,0.1382692,2.2778227
994,10:45:30.232000,-5.044365900000001,4.2399492,-11.8986712,7.3127265,0.1382692,2.2778227
995,10:45:30.241000,-2.2001767000000005,2.6813905,-11.3001461,5.968824400000001,0.288542,2.5991375
996,10:45:30.251000,-2.8441892,-0.33756790000000003,-11.4294271,5.1136136,0.0637438,2.552712
997,10:45:30.260000,-4.1010914,-4.946208,-12.492406800000001,6.336565,-0.45060429999999996,2.2619402
998,10:45:30.273000,-5.216741099999999,-4.7355275,-15.801052100000001,6.6053452,-1.1262207,2.2191799
999,10:45:30.280000,-4.3931708,9.6769466,-11.194806100000001,6.6053452,-1.1262207,2.2191799
1000,10:45:30.293000,-0.7493529000000001,6.140863400000001,-9.801440199999998,2.7911057,-1.6821077000000002,2.4879603
1001,10:45:30.299000,-2.2097533,3.7276117999999996,-11.3121166,2.7911057,-1.6821077000000002,2.4879603
1002,10:45:30.309000,-2.4778922000000003,4.8312917,-7.9508018,3.9847355,-2.009531,1.0915235
1003,10:45:30.319000,-2.9064360000000002,3.6677592000000003,-7.3235478,5.1233873,-2.9905798,1.1574969
1004,10:45:30.328000,-1.7572685000000001,2.8561597,-4.156155600000001,6.886342999999999,-3.4084112999999996,1.2735611999999998
1005,10:45:30.340000,-0.3806617,2.2863643,-1.4053360000000001,7.943139100000001,-3.649092,1.4079515
1006,10:45:30.348000,0.0311233,0.2561686,0.22265120000000002,7.943139100000001,-3.649092,1.4079515
1007,10:45:30.357000,0.3327797,-1.6088343999999999,0.9576395000000001,7.471551400000001,-3.0638838,1.4995812
1008,10:45:30.367000,-0.09815800000000001,-2.2360882999999996,0.9863687,6.7568398,-2.751121,1.6388582999999999
1009,10:45:30.376000,-1.4723707000000001,-0.9001811,0.5650073,5.5729837,-2.6045133999999996,2.0542464
1010,10:45:30.389000,-0.6679536,1.9918901000000002,0.9815805000000001,2.2963054,-2.6533825,2.8923528
1011,10:45:30.396000,-1.0007333,2.2313001,3.7587349000000003,2.2963054,-2.6533825,2.8923528
1012,10:45:30.407000,0.44051409999999996,-0.0215469,9.5644236,0.7410438,-2.5006664,3.1684634999999997
1013,10:45:30.415000,0.1197049,0.8163876999999999,11.228323,-0.48557259999999997,-2.0742828999999996,2.814162
1014,10:45:30.426000,0.2920801,1.5010998,10.0983086,-2.0579383,-1.3681231000000003,2.9057918
1015,10:45:30.438000,1.6303812,-0.7685057,9.116727800000001,-5.2991862,-1.220294,2.9448872
1016,10:45:30.444000,2.8106720000000003,-4.524846599999999,7.5821104,-5.2991862,-1.220294,2.9448872
1017,10:45:30.455000,2.5784442000000003,-8.175847099999999,4.7546802,-7.549612,-0.7377108,2.6443417
1018,10:45:30.464000,2.52338,-14.975088099999999,-1.9487964,-7.549612,-0.7377108,2.6443417
1019,10:45:30.474000,10.7255621,-33.440773,-7.9029198,-8.454913099999999,0.051526499999999996,1.0255501
1020,10:45:30.493000,22.344123800000002,-29.564725899999996,-7.687450900000001,-8.454913099999999,0.051526499999999996,1.0255501
1021,10:45:30.505000,20.979488399999997,-26.842636100000004,-3.7276117999999996,-2.6883507,1.390542,-3.6438997000000004
1022,10:45:30.512000,21.4367599,-27.297514000000003,-1.2976014999999999,-2.6883507,1.390542,-3.6438997000000004
1023,10:45:30.522000,19.9548149,-28.1833305,-6.5430722,-4.7261953000000005,2.3398256,-4.7373476
1024,10:45:30.532000,18.1209335,-22.8037891,-12.217085800000001,-7.7328715,3.7044973,-5.020788700000001
1025,10:45:30.542000,20.2564697,-16.5120983,-14.630336800000002,-9.9637489,4.547491099999999,-4.6151748
1026,10:45:30.557000,25.451664,-13.9767485,-9.2029161,-12.782278999999999,6.854116,-3.078239
1027,10:45:30.561000,19.4017754,-20.850206399999998,-20.2325287,-14.7370462,7.5847106,-2.3574188
1028,10:45:30.572000,8.0010777,-18.1903629,-20.081699399999998,-15.7144299,7.9854379,0.1007009
1029,10:45:30.580000,1.6567163,-17.6253548,-20.0553665,-15.7144299,7.9854379,0.1007009
1030,10:45:30.589000,-2.2265117,-16.2607193,-18.6667881,-15.671669,7.6775618,3.0976033
1031,10:45:30.602000,-5.640496700000001,-12.7868814,-15.6143122,-14.012560800000001,6.724612700000001,3.8892839
1032,10:45:30.609000,-7.7425156,-7.2565136,-16.7227802,-10.0981398,5.140029900000001,4.299785099999999
1033,10:45:30.621000,-8.0441723,-2.8274305,-19.4759941,0.0886403,1.9476504000000001,2.7652929
1034,10:45:30.628000,-6.246203400000001,-1.7883917,-17.6277504,0.0886403,1.9476504000000001,2.7652929
1035,10:45:30.639000,-5.1760416,-0.9863687,-12.7677288,4.5858264,0.6575043,1.2369093999999998
1036,10:45:30.647000,-5.7889309,0.3279915,-9.973815,7.4825473,-0.18548900000000001,0.42079399999999995
1037,10:45:30.657000,-5.4322099999999995,3.3708911,-12.207510000000001,8.1911497,-0.5471209,0.5014281
1038,10:45:30.667000,-3.8042231,2.4611335,-11.8986712,6.2205005,-1.3705666,1.1037408000000002
1039,10:45:30.675000,-3.6510005,-0.14125179999999998,-11.8962774,6.2205005,-1.3705666,1.1037408000000002
1040,10:45:30.685000,-5.688378299999999,-1.2904191999999999,-13.205848699999999,4.837503,-1.7871763999999999,1.7414836
1041,10:45:30.694000,-6.2557802,-1.1084677,-12.41819,4.837503,-1.7871763999999999,1.7414836
1042,10:45:30.704000,-6.6508064,2.7292726000000003,-8.937171000000001,4.9608974,-1.8885797999999998,2.0811243000000004
1043,10:45:30.715000,-5.0060606,1.0438271000000001,-7.653933500000001,5.4056072,-1.7786243000000002,2.7359715000000002
1044,10:45:30.723000,-4.266284,-2.3893106,-7.3187599,5.4056072,-1.7786243000000002,2.7359715000000002
1045,10:45:30.733000,-5.4729095,-3.6605771000000003,-10.2299843,7.525307700000001,-1.7346419999999998,2.6858804
1046,10:45:30.743000,-7.1368084000000005,-2.4300102999999997,-8.7647963,7.525307700000001,-1.7346419999999998,2.6858804
1047,10:45:30.753000,-11.271416699999998,10.1773138,-13.081356,8.1190681,-1.6381253999999998,3.0096388
1048,10:45:30.763000,-4.974937000000001,12.6169004,-3.8114052000000003,4.7837467,-2.2037861,3.9002795
1049,10:45:30.772000,-1.4604002,8.1949997,-5.4010868,5.8197732,-2.8916199000000002,2.0615766
1050,10:45:30.782000,-1.8673970000000002,6.710659,-6.8471227,6.0115848,-2.7670035,1.8722086
1051,10:45:30.791000,-3.4594727,4.6206107,-4.3309245,6.0115848,-2.7670035,1.8722086
1052,10:45:30.801000,-4.3069835,3.5576307999999996,-6.2414155,5.962715599999999,-2.8916199000000002,2.4146563999999997
1053,10:45:30.810000,-2.8346131000000003,2.279182,-4.7259512,5.392168,-3.0015755,2.3780046
1054,10:45:30.820000,-0.5745836999999999,1.7740271,-3.3254032,4.6689042999999995,-3.1310787,1.7598095
1055,10:45:30.831000,2.8729186,0.48121379999999997,0.0813994,3.0427821,-3.54158,1.4030645
1056,10:45:30.839000,6.418578599999999,-2.5425327,5.1353421,3.0427821,-3.54158,1.4030645
1057,10:45:30.849000,6.370697,-5.6500731,7.373824099999999,1.8796955000000002,-2.7450123,2.1177762
1058,10:45:30.859000,5.2215295,-6.0905871,5.4417862999999995,1.8796955000000002,-2.7450123,2.1177762
1059,10:45:30.868000,2.7603958,-5.216741099999999,4.555970200000001,1.0990105,-2.4921142999999994,2.4586387000000003
1060,10:45:30.878000,1.3359071000000002,-4.0795441,2.1762357000000003,-0.98526,-2.7303514,2.4855167999999996
1061,10:45:30.888000,1.5202527,-7.7257565999999995,3.2918858999999996,-0.98526,-2.7303514,2.4855167999999996
1062,10:45:30.898000,1.1874731,-8.669032099999999,4.529635,-2.0921469,-2.5544224,1.2870002
1063,10:45:30.907000,1.9128848000000003,-6.1264987,4.0196919,-2.0921469,-2.5544224,1.2870002
1064,10:45:30.917000,5.116189,-8.108812299999999,6.4880075,-3.5704392999999994,-2.6301696,1.4262774
1065,10:45:30.927000,9.2053099,-13.2082434,4.369229799999999,-4.760403599999999,-2.7169125,1.1269537
1066,10:45:30.936000,18.8271923,-25.0207253,-1.7716331000000003,-6.2142615,-2.3821588,0.2839603
1067,10:45:30.947000,26.8713646,-38.0278625,-9.9762087,-7.994321799999999,0.025870099999999997,-1.8308533
1068,10:45:30.955000,22.6002922,-31.5566158,-10.7111979,-7.994321799999999,0.025870099999999997,-1.8308533
1069,10:45:30.965000,21.0058212,-24.3288326,-8.5612974,-3.0768607000000006,1.3428946000000002,-4.163134599999999
1070,10:45:30.975000,21.769540799999998,-23.0743237,-8.427228,-3.0768607000000006,1.3428946000000002,-4.163134599999999
1071,10:45:30.985000,25.9568176,-23.8643761,-7.723362400000001,-3.8807584999999998,2.4998722,-5.1014228
1072,10:45:30.994000,22.717603699999998,-31.5159168,-12.0327396,-6.1678362,3.5737724,-5.3995252
1073,10:45:31.004000,20.696983300000003,-32.8949165,-8.2644291,-8.0969467,5.1571340999999995,-5.0232325
1074,10:45:31.014000,15.911179500000001,-26.0142765,-8.3410397,-9.6143351,7.5101848,-3.2236249
1075,10:45:31.023000,11.017642,-18.638057699999997,-12.497195199999998,-9.6143351,7.5101848,-3.2236249
1076,10:45:31.033000,6.696293799999999,-14.053360000000001,-14.120393799999999,-9.7682724,7.7826304,-2.3171017000000003
1077,10:45:31.043000,4.3812003,-13.959989499999999,-13.5242643,-10.3999071,7.2707257,-1.1576803999999998
1078,10:45:31.053000,-2.7484252000000002,-12.750969900000001,-10.5172758,-11.2978783,6.7453823,-0.23527470000000003
1079,10:45:31.063000,-8.3649807,-10.6992273,-9.471055,-11.8195562,6.482710400000001,1.8392220000000001
1080,10:45:31.072000,-11.5371618,-10.4191179,-12.336791,-11.431046499999999,5.9781360999999995,3.9564790999999997
1081,10:45:31.081000,-5.5423384,-8.6019974,-16.8568497,-8.9020662,5.196229499999999,4.2484722
1082,10:45:31.091000,-3.7252178,-4.1800966,-21.9036102,-4.3621197,3.7680273,3.2051156
1083,10:45:31.101000,-4.0149035,0.07661119999999999,-27.414823499999997,0.2963343,2.1052537,2.182528
1084,10:45:31.112000,-1.4651883999999997,-3.3828616,-16.2966309,6.558919400000001,0.1174999,0.9998937
1085,10:45:31.120000,-1.8721851999999999,-2.9471354,-12.1955395,6.558919400000001,0.1174999,0.9998937
1086,10:45:31.130000,-2.5545032,-1.4723707000000001,-9.3752909,8.0579815,0.2946506,1.2063661
1087,10:45:31.140000,-3.3637087,-0.4046027,-10.687256800000002,6.696975200000001,-0.0083383,2.606468
1088,10:45:31.150000,-5.0778837,1.5729228000000002,-14.924812300000003,6.696975200000001,-0.0083383,2.606468
1089,10:45:31.161000,-5.8870888,0.6775299,-12.8275814,5.507010500000001,-0.15128060000000002,3.0658383
1090,10:45:31.170000,-7.3929772,1.9799197,-12.6839352,5.020762400000001,-0.3601964,3.2600932
1091,10:45:31.180000,-7.914890299999999,5.5040331,-13.258519199999999,4.3365936,-0.650968,3.4054792000000003
1092,10:45:31.189000,-4.8839616999999995,4.0244799,-9.8349581,4.3365936,-0.650968,3.4054792000000003
1093,10:45:31.199000,-3.2033041,0.5674013000000001,-11.1971998,4.0800304,-1.1714246000000001,3.0597296000000003
1094,10:45:31.209000,-1.8338796000000002,-5.2382879,-8.839013099999999,4.7470946,-1.3791187,2.6040246
1095,10:45:31.218000,-6.511948599999999,0.9313045,-17.3811569,5.7977819,-1.7407506000000001,2.4928472000000004
1096,10:45:31.230000,-7.560564,15.4419374,-16.6509571,2.984139,-2.1805732000000004,3.7035811
1097,10:45:31.239000,6.653200599999999,7.3834004,4.7139807000000005,2.984139,-2.1805732000000004,3.7035811
1098,10:45:31.248000,2.5760503,3.7371883,-10.0049391,5.0696316,-2.3186287999999995,1.1269537
1099,10:45:31.258000,1.3861831,2.6837847000000004,-8.7863417,5.0696316,-2.3186287999999995,1.1269537
1100,10:45:31.267000,0.0430938,-0.4046027,-5.927788700000001,5.695157099999999,-2.7926598,2.2570533999999998
1101,10:45:31.280000,-0.34714429999999996,-1.1515615,-9.0472994,7.1514583,-3.2825732000000003,1.9687252
1102,10:45:31.286000,0.9935510000000001,-2.693361,-6.763329,6.452629099999999,-3.2361476000000002,1.5631111
1103,10:45:31.298000,1.1204382,-2.5999912999999997,-3.2918858999999996,5.5668755,-3.3986375,1.9956033
1104,10:45:31.306000,1.0007333,-2.1163833,-2.2336943,5.5668755,-3.3986375,1.9956033
1105,10:45:31.315000,1.7261453000000002,-2.6215382000000003,-0.6128892,4.4392190000000005,-3.4597239,2.9644348999999997
1106,10:45:31.326000,2.5975973999999997,-2.8848889,0.4046027,3.2529194,-3.5134802000000005,3.5129912000000005
1107,10:45:31.335000,1.4915235,-1.4220946,-1.4197004999999998,1.8564827000000002,-3.4242937999999996,3.613173
1108,10:45:31.349000,2.2552409,-3.9143515,-2.1690536,-0.1850271,-2.9918017000000003,3.5154347
1109,10:45:31.355000,4.476964499999999,-10.2874422,3.7922525,-0.1850271,-2.9918017000000003,3.5154347
1110,10:45:31.364000,3.9311101,-11.2019882,3.8161936,-0.0982843,-2.8317552000000004,3.3505013
1111,10:45:31.377000,5.0060606,-9.8756571,2.2600293,-0.0982843,-2.8317552000000004,3.3505013
1112,10:45:31.384000,11.479702900000001,-11.1014357,6.617289100000001,-1.4898341999999998,-3.1237482999999995,3.7817717000000006
1113,10:45:31.398000,16.047643700000002,-12.250602699999998,5.5064268,-3.6779516000000005,-3.5464667999999997,2.8263792999999997
1114,10:45:31.403000,18.7074871,-18.4273777,4.338107099999999,-3.6779516000000005,-3.5464667999999997,2.8263792999999997
1115,10:45:31.413000,16.1505909,-27.273572899999998,2.3701577,-5.0035276,-1.3094801999999999,0.6236010999999999
1116,10:45:31.423000,10.320960000000001,-28.171359999999996,3.9311101,-5.0035276,-1.3094801999999999,0.6236010999999999
1117,10:45:31.433000,9.746376,-19.9212952,7.5557756,-3.6058695,-0.5251298000000001,-1.0428379
1118,10:45:31.445000,12.478042599999998,-17.081893899999997,11.2019882,-3.3700759,0.7882293,-4.562640200000001
1119,10:45:31.452000,13.4428644,-26.53619,3.8281641000000004,-3.3700759,0.7882293,-4.562640200000001
1120,10:45:31.462000,15.96385,-31.740961100000003,3.1219049,-8.0028734,3.1388366000000003,-6.0152764
1121,10:45:31.471000,14.991846100000002,-27.141897200000002,2.4300102999999997,-8.0028734,3.1388366000000003,-6.0152764
1122,10:45:31.481000,14.4699326,-20.9699097,-3.3301911,-8.8629713,6.0111227,-6.4306645
1123,10:45:31.499000,15.109156599999999,-15.889633199999999,-11.908247,-8.8629713,6.0111227,-6.4306645
1124,10:45:31.513000,12.506772,-19.6507626,-14.5992136,-12.1567535,7.8608212,-4.0287447
1125,10:45:31.519000,-7.357065700000001,-27.580017100000003,-22.9641953,-12.1567535,7.8608212,-4.0287447
1126,10:45:31.529000,-1.0988913999999999,-23.038412100000002,-16.8281193,-13.966135000000001,7.473533199999999,-0.13875810000000002
1127,10:45:31.540000,-5.6213441,-18.3052807,-14.1874294,-13.966135000000001,7.473533199999999,-0.13875810000000002
1128,10:45:31.549000,-7.1631436,-16.5887108,-15.506578400000002,-8.2130108,4.622016400000001,2.6028027999999996
1129,10:45:31.560000,-5.7602015,-13.9695663,-18.975626000000002,-4.253386,3.3563046,2.4451997000000003
1130,10:45:31.568000,-5.5327621,-5.7099257,-30.821628600000004,-4.253386,3.3563046,2.4451997000000003
1131,10:45:31.579000,-2.0948365,-1.9775256,-28.822553600000003,3.7965891000000003,-0.709611,0.7225611999999999
1132,10:45:31.587000,-0.43333190000000005,0.1197049,-20.127187699999997,3.7965891000000003,-0.709611,0.7225611999999999
1133,10:45:31.597000,-2.4898627,0.9504572,-15.616705900000001,6.8191481,-1.5978084,0.4647763
1134,10:45:31.609000,-2.2672114,0.5721896,-15.937515300000001,7.8832740999999995,-1.0871253,1.1147364
1135,10:45:31.616000,-3.6079068,-0.4093909,-14.642308199999999,8.225359,-1.3436885,1.4629292
1136,10:45:31.627000,-5.3005347,-1.4053360000000001,-13.299219099999998,8.5698862,-1.5916996,1.7243794
1137,10:45:31.636000,-6.2964797,-1.2090199,-10.797385199999999,8.6114254,-1.4011098999999998,2.1751976
1138,10:45:31.646000,-8.9970226,1.1156501,-8.4703207,8.1496115,-1.2154068999999998,2.5795901000000003
1139,10:45:31.658000,-11.776572199999999,7.1775079,-10.5890989,4.8387246,-0.9173049999999999,4.1287427
1140,10:45:31.665000,-10.675286300000002,6.701082700000001,-6.1624098,4.8387246,-0.9173049999999999,4.1287427
1141,10:45:31.676000,-8.9084406,1.9057026000000001,-5.9206061,4.6041527,-1.4157705,3.5789647000000007
1142,10:45:31.684000,-9.681735,-1.5848933,-9.870868699999999,4.6041527,-1.4157705,3.5789647000000007
1143,10:45:31.695000,-12.8036404,2.7101197,-12.9951677,4.3732457,-1.1873071000000002,4.2839026
1144,10:45:31.704000,-11.8627586,15.956667900000001,-8.8940773,4.3732457,-1.1873071000000002,4.2839026
1145,10:45:31.713000,-0.3830558,11.6041965,4.8456559,1.3824517,-1.5526042,5.239294999999999
1146,10:45:31.725000,1.8266973000000002,5.2550468,-9.3345909,3.1783941,-4.2184175999999995,2.1678672000000003
1147,10:45:31.733000,0.6104951999999999,1.9392200000000002,-9.5404844,3.1783941,-4.2184175999999995,2.1678672000000003
1148,10:45:31.744000,-1.6303812,-0.3710853,-4.5631518,4.8313942,-2.6814823,3.3089623
1149,10:45:31.752000,-3.4379258000000004,-1.8147268,-3.8353462,4.8313942,-2.6814823,3.3089623
1150,10:45:31.761000,-3.0859932999999997,-4.917479,-2.6981492,4.0067267,-2.8170943,3.5581954
1151,10:45:31.773000,1.0725563,-5.6668315,-3.6797296999999998,2.9193873,-2.4860055,2.9473305
1152,10:45:31.781000,-2.9447415,-8.8749237,-1.0486152,2.1680238,-2.4127018,2.760406
1153,10:45:31.792000,-0.3327797,-9.6123056,0.22265120000000002,0.9951636,-3.320447,4.49404
1154,10:45:31.801000,-0.5889483,-7.661116099999999,-0.7206236999999999,0.9951636,-3.320447,4.49404
1155,10:45:31.810000,-1.0150979,-4.2591014000000005,-1.2018377,0.24257820000000002,-3.4120765,4.52947
1156,10:45:31.820000,-0.8786343000000001,-4.601458099999999,-1.4412475,-0.3866125,-3.4389546,4.5416875
1157,10:45:31.829000,-2.2911525,-7.9915012999999995,1.9799197,-0.36217790000000005,-3.4841585,4.1751685
1158,10:45:31.844000,-3.8928044,-5.1712537,1.9487964,-0.5930848000000001,-2.8671851000000004,3.9992394
1159,10:45:31.849000,-4.213614,-3.9550512,0.33756790000000003,-0.5930848000000001,-2.8671851000000004,3.9992394
1160,10:45:31.859000,-1.8195150000000002,-7.7185745,2.3629756,-2.0469429,-3.0015755,3.7988760000000004
1161,10:45:31.868000,-0.1101285,-12.0638638,3.1219049,-2.8520625,-3.5550189,2.7249757999999997
1162,10:45:31.878000,1.6375635,-15.9925804,1.9918901000000002,-4.1092219,-3.5745666,1.6620712
1163,10:45:31.890000,8.841406800000001,-23.1174183,-4.9893022,-7.3932304,-1.9142363000000002,-0.6726539
1164,10:45:31.897000,16.0811615,-29.808923699999998,-8.973081599999999,-7.3932304,-1.9142363000000002,-0.6726539
1165,10:45:31.908000,14.199399900000001,-22.3129997,-6.643623799999999,-3.8856455999999997,-0.4335001,-4.6469398
1166,10:45:31.917000,13.651150699999999,-14.4699326,-1.0821326,-3.8856455999999997,-0.4335001,-4.6469398
1167,10:45:31.926000,16.102708800000002,-16.3756351,3.0764169999999997,-2.5466301,0.3862804,-6.192427599999999
1168,10:45:31.937000,19.6148529,-24.0223866,-2.8824949,-3.4042842,1.6495485,-7.3726182
1169,10:45:31.945000,23.1030521,-35.1477623,-9.3561382,-6.0639892,3.0386547999999998,-7.6059684999999995
1170,10:45:31.958000,23.4693508,-32.9811058,-6.6508064,-9.1769552,5.598178400000001,-5.9334207
1171,10:45:31.966000,16.938247699999998,-24.292919199999996,-9.12391,-9.1769552,5.598178400000001,-5.9334207
1172,10:45:31.977000,14.077301,-18.0060158,-11.678414300000002,-9.153742800000002,7.3476949000000005,-4.1203742
1173,10:45:31.986000,-0.7325941999999999,-19.3227692,-16.004550899999998,-9.153742800000002,7.3476949000000005,-4.1203742
1174,10:45:31.994000,7.5868988,-17.5726833,-16.1122856,-10.680904400000001,7.5187368,-2.6787335999999997
