,time,ax,ay,az,wx,wy,wz
19851,13:45:35.838000,9.1574278,7.5821104,-14.3214989,3.7183983,-0.5691121,1.4165035
19852,13:45:35.838000,9.1526403,9.5907602,-14.113211600000001,3.7183983,-0.5691121,1.4165035
19853,13:45:35.838000,8.7408552,11.3025398,-13.418923399999999,3.7183983,-0.5691121,1.4165035
19854,13:45:35.839000,7.8334908,11.5994081,-12.8275814,3.7183983,-0.5691121,1.4165035
19855,13:45:35.839000,6.653200599999999,10.1390076,-12.099775300000001,3.7183983,-0.5691121,1.4165035
19856,13:45:35.848000,5.6500731,8.408075300000002,-11.9680996,3.1429639,-0.4163959,1.3444215
19857,13:45:35.873000,5.5016389000000006,7.165537400000001,-11.8986712,2.1069374,-0.18671079999999998,0.9375855
19858,13:45:35.874000,4.802562200000001,6.5191312,-11.486886,2.1069374,-0.18671079999999998,0.9375855
19859,13:45:35.875000,4.383595,6.643623799999999,-10.768655800000001,2.1069374,-0.18671079999999998,0.9375855
19860,13:45:35.883000,4.0388446,6.476037,-10.565157899999999,1.8406003,-0.19770629999999997,0.7860911
19861,13:45:35.892000,4.1322145,6.2964797,-10.8141441,1.8406003,-0.19770629999999997,0.7860911
19862,13:45:35.902000,4.941420099999999,6.4784312,-9.7918644,1.5327244,-0.2600145,0.6626964
19863,13:45:35.912000,4.9725428,6.2988739,-8.961112,1.3189218,-0.36263979999999996,0.5466321
19864,13:45:35.922000,3.8209815000000003,5.4753041,-9.2962847,0.8888731,-0.3711919,0.4122419
19865,13:45:35.931000,3.2200627,4.0149035,-9.4375372,0.8888731,-0.3711919,0.4122419
19866,13:45:35.941000,4.1489735,2.66942,-9.4662657,0.3720815,-0.46282159999999994,0.28762550000000003
19867,13:45:35.951000,4.7259512,1.5561641000000002,-10.1078854,0.3720815,-0.46282159999999994,0.28762550000000003
19868,13:45:35.960000,4.2614961,1.7596626,-9.775105499999999,0.3549773,-0.5422340999999999,0.22165210000000002
19869,13:45:35.972000,4.0627856,2.7220902000000002,-8.7863417,0.4893675,-0.5886598000000001,0.2155435
19870,13:45:35.980000,4.4290824,3.1506341,-8.961112,0.6738486,-0.5935467,0.2118783
19871,13:45:35.989000,5.0539427,3.7347938999999997,-8.702549000000001,0.7642566,-0.5813293,0.2045479
19872,13:45:35.999000,5.4058752,4.3428949999999995,-8.4559574,0.7642566,-0.6094291000000001,0.2155435
19873,13:45:36.011000,5.451363099999999,4.7834096,-8.305128100000001,0.7117223000000001,-0.5471209,0.2436433
19874,13:45:36.020000,5.3364458,4.8552327,-8.2835817,0.6396401999999999,-0.48114759999999995,0.27540820000000005
19875,13:45:36.028000,4.8935379999999995,4.2758603,-8.4942617,0.5235759,-0.4005134,0.32183390000000006
19876,13:45:36.040000,5.034789599999999,3.9861746,-8.5924196,0.46248950000000005,-0.3553094,0.3401599
19877,13:45:36.047000,5.1856179000000004,4.0412387999999995,-8.5756617,0.46248950000000005,-0.3553094,0.3401599
19878,13:45:36.057000,4.802562200000001,4.0747561,-8.8557711,0.4954762,-0.2465755,0.303508
19879,13:45:36.066000,7.783214999999999,10.71838,-9.0042048,0.4954762,-0.2465755,0.303508
19880,13:45:36.076000,3.6007245,3.1721807,-9.188550900000001,0.5443454000000001,-0.2380234,0.2631909
19881,13:45:36.089000,5.1664648,3.7036707000000004,-9.0449047,0.5260194,-0.3540877,0.47455010000000003
19882,13:45:36.096000,4.2279787,3.8281641000000004,-9.2603741,0.5260194,-0.3540877,0.47455010000000003
19883,13:45:36.106000,4.352471400000001,3.6007245,-9.195733099999998,0.5272411,-0.4542695,0.2485302
19884,13:45:36.115000,4.139396700000001,3.4977782,-9.0951815,0.6200926,-0.4286132,0.09337050000000001
19885,13:45:36.126000,4.0484209,3.5528426,-9.0951815,0.5919928000000001,-0.40417859999999994,0.028618900000000003
19886,13:45:36.138000,3.9287159,3.3972260999999997,-8.9515352,0.5919928000000001,-0.40417859999999994,0.028618900000000003
19887,13:45:36.144000,3.8664693999999997,3.270339,-8.872530000000001,0.5956579000000001,-0.36752670000000004,0.0017408
19888,13:45:36.157000,3.8592873,3.2655509,-8.841406800000001,0.5944363,-0.3137707,-0.0007026
19889,13:45:36.164000,3.7730997000000004,3.1410575,-8.9180183,0.5883276,-0.2893361,0.0041843
19890,13:45:36.173000,3.7635233,3.126693,-8.8533773,0.5883276,-0.2893361,0.0041843
19891,13:45:36.187000,3.7659172999999995,3.0572641,-8.898864699999999,0.5736668,-0.27345359999999996,0.0102929
19892,13:45:36.193000,3.7515528,3.006988,-8.8797121,0.5492322,-0.2575711,0.0200668
19893,13:45:36.207000,3.7323998999999994,2.9638944,-8.989841499999999,0.47348500000000004,-0.2221409,0.031062299999999998
19894,13:45:36.213000,3.7922525,2.9255888,-9.0209637,0.41239849999999995,-0.20137149999999998,0.029840600000000002
19895,13:45:36.224000,3.780282,2.8992536,-9.1454573,0.34276,-0.17815870000000003,0.0225102
19896,13:45:36.237000,3.7515528,2.8513715,-9.0903931,0.2694562,-0.15128060000000002,0.0200668
19897,13:45:36.241000,3.7012767999999996,2.8561597,-9.1454573,0.19737420000000003,-0.12684600000000001,0.012736399999999998
19898,13:45:36.255000,3.6222714999999996,2.8465835999999998,-9.131093,0.1362877,-0.09874630000000001,0.005406
19899,13:45:36.261000,3.6988826,2.8848889,-9.1191216,0.08130989999999999,-0.062094399999999994,-0.0031460999999999998
19900,13:45:36.272000,3.6940942000000003,2.932771,-9.0927868,0.0409928,-0.013225200000000001,-0.012919899999999998
19901,13:45:36.281000,3.6605771000000003,2.9447415,-9.131093,0.010449600000000002,0.0295353,0.0005191
19902,13:45:36.291000,3.6988826,2.9519238,-9.0903931,-0.006654600000000001,0.0661872,0.0225102
19903,13:45:36.305000,3.7395822999999995,2.9255888,-9.0257521,-0.010319799999999999,0.09795219999999999,0.040836199999999996
19904,13:45:36.309000,3.7036707000000004,2.9399533,-9.016176199999999,-0.005432899999999999,0.12360850000000001,0.0554969
19905,13:45:36.321000,3.7252178,2.8801007000000003,-8.9228058,0.005562699999999999,0.1382692,0.0628273
19906,13:45:36.329000,3.7467644,2.8944654,-8.910836199999999,0.005562699999999999,0.1382692,0.0628273
19907,13:45:36.338000,3.7659172999999995,2.863342,-8.8246479,0.0409928,0.126052,0.082375
19908,13:45:36.352000,3.7611291,2.8513715,-8.839013099999999,0.0556536,0.10894780000000001,0.0860402
19909,13:45:36.357000,3.7707055,2.8561597,-8.8701363,0.0556536,0.10894780000000001,0.0860402
19910,13:45:36.371000,3.7539468,2.813066,-8.815072099999998,0.0825316,0.0649655,0.0799315
19911,13:45:36.378000,3.8209815000000003,2.7963072999999996,-8.8701363,0.0971924,0.0368657,0.0701577
19912,13:45:36.390000,3.8233757000000006,2.7915192,-8.8701363,0.10452269999999998,0.0112094,0.0628273
19913,13:45:36.397000,3.8137991,2.7795486,-8.9443531,0.10452269999999998,-0.0120035,0.0664925
19914,13:45:36.407000,3.8066169999999997,2.7771543999999997,-8.9347773,0.1020793,-0.0339946,0.0762663
19915,13:45:36.422000,3.809011,2.7603958,-8.963505699999999,0.0984141,-0.048655300000000005,0.08726189999999999
19916,13:45:36.425000,3.7922525,2.7412429,-8.9275942,0.0984141,-0.048655300000000005,0.08726189999999999
19917,13:45:36.436000,3.8066169999999997,2.7699722999999996,-9.023358300000002,0.0727578,-0.0608726,0.095814
19918,13:45:36.444000,3.7707055,2.7412429,-9.049693099999999,0.0727578,-0.0608726,0.095814
19919,13:45:36.455000,3.7204294,2.7316667999999997,-9.0568762,0.0507666,-0.0572075,0.0970357
19920,13:45:36.465000,3.7683115,2.8298247,-9.111940400000002,0.020223400000000002,-0.0376598,0.1068096
19921,13:45:36.474000,3.8066169999999997,2.8729186,-9.2484026,-0.050636900000000006,0.039309199999999996,0.1788916
19922,13:45:36.484000,3.8784398999999996,2.9112239,-9.4112024,-0.050636900000000006,0.039309199999999996,0.1788916
19923,13:45:36.494000,3.8497107,2.8609481,-9.420779199999998,-0.0811801,0.0918435,0.226539
19924,13:45:36.504000,3.8904104,2.8178542,-9.4662657,-0.11416680000000001,0.1810298,0.2692996
19925,13:45:36.513000,4.0771503,2.9279827999999997,-9.5404844,-0.1581491,0.3068679,0.3071732
19926,13:45:36.523000,4.115455600000001,2.9854412,-9.846927599999999,-0.2290094,0.46569279999999996,0.3413816
19927,13:45:36.534000,4.7331328,3.5336897000000005,-10.258712800000001,-0.3511823,0.6220741,0.3719248
19928,13:45:36.542000,6.823181599999999,6.4209727999999995,-8.815072099999998,-0.5222244,0.794338,0.3743683
19929,13:45:36.555000,10.459816900000002,10.002545399999999,-11.9752817,-1.3114617,1.350225,0.3694814
19930,13:45:36.561000,6.7513585,9.2053099,-14.8075008,-1.9528697,1.9586461,0.5405234999999999
19931,13:45:36.572000,4.7427095999999995,7.187084700000001,-13.521869699999998,-2.1214682999999996,2.2396437999999996,0.9265899999999999
19932,13:45:36.585000,4.2782545,5.2598348,-15.5784006,-2.5380781000000003,2.2103224,0.9119292
19933,13:45:36.590000,4.4147182,2.6382967999999996,-16.303812,-2.5380781000000003,2.2103224,0.9119292
19934,13:45:36.602000,6.6053185,0.1364636,-15.9087858,-2.3413796000000002,1.1400874,0.511202
19935,13:45:36.610000,8.946746800000001,1.3263308,-14.0653296,-2.3413796000000002,1.1400874,0.511202
19936,13:45:36.621000,9.559636099999999,5.0850654,-12.9568624,-1.4055349,1.0313535,-0.0544587
19937,13:45:36.630000,8.597209,7.3786125,-12.4732542,-1.4055349,1.0313535,-0.0544587
19938,13:45:36.639000,8.005866099999999,8.3673754,-12.118928,-1.8038186999999999,1.9317679,-0.4918379
19939,13:45:36.651000,9.506965600000001,7.4312825,-11.7574186,-1.8038186999999999,1.9317679,-0.4918379
19940,13:45:36.659000,11.3743629,5.9948235,-11.9226122,-2.4733264,1.9684198,-0.8351439
19941,13:45:36.671000,12.248209,4.5416055,-12.4397373,-3.5667744,2.1773357000000004,-1.5034298000000001
19942,13:45:36.678000,11.7741776,2.5305624,-12.770122500000001,-3.5667744,2.1773357000000004,-1.5034298000000001
19943,13:45:36.688000,10.7447147,1.0174919,-12.3296089,-3.9210756,2.4827681,-1.642707
19944,13:45:36.701000,10.0073328,1.1084677,-11.446186099999998,-4.1153307,2.8786082000000004,-1.7380018
19945,13:45:36.707000,9.253191900000001,1.9607668999999999,-9.9307222,-4.1153307,2.8786082000000004,-1.7380018
19946,13:45:36.718000,8.221335400000001,2.5305624,-8.6857901,-4.000487799999999,2.970238,-1.8711703999999998
19947,13:45:36.727000,6.827969599999999,2.2121472,-7.7856088,-3.9467323,3.0447636,-1.9750173999999998
19948,13:45:36.737000,5.870329900000001,1.7907859,-7.0171037,-3.9760535000000004,3.0630894,-2.0080042000000002
19949,13:45:36.750000,4.6804628,3.1721807,-5.654861,-3.7769117,2.9775683999999996,-2.0348821
19950,13:45:36.756000,3.5504483999999996,3.8449225,-3.6414242,-3.4470447999999996,2.8786082000000004,-2.0935252
19951,13:45:36.768000,2.3294580000000003,5.2215295,-1.6686869,-3.1355037999999995,2.7002357999999997,-2.1387291
19952,13:45:36.775000,1.9942843000000001,6.564619099999999,-0.1963161,-3.1355037999999995,2.7002357999999997,-2.1387291
19953,13:45:36.787000,2.1738417,7.4360704,0.5290958,-2.8532843999999997,2.4888765999999998,-2.257237
19954,13:45:36.800000,2.5042272,7.8646145,0.8834224,-2.6859074,2.1822226000000002,-2.3476448
19955,13:45:36.805000,2.8896773,8.240488099999999,1.0701622,-2.6260426,1.8743467,-2.3623056
19956,13:45:36.816000,2.6239324,8.082477599999999,0.7661116,-2.7164505,1.3245685,-2.0409908
19957,13:45:36.823000,2.3366406000000004,6.7561464,0.5051548,-2.7750936,1.0936618,-1.7868711
19958,13:45:36.832000,2.0206193999999997,5.630920400000001,0.2968683,-2.7250028,0.898185,-1.6304896999999998
19959,13:45:36.842000,2.0589249,4.9940901,0.5051548,-2.5319693,0.7210342,-1.5498555
19960,13:45:36.852000,2.5808383999999998,5.422633599999999,0.9336985000000001,-2.5319693,0.7210342,-1.5498555
19961,13:45:36.862000,3.0165646,5.427422,0.9887628,-2.2521935,0.5658746,-1.5413033999999999
19962,13:45:36.871000,3.1242987999999996,5.178435299999999,1.0629798000000001,-1.7977101000000002,0.38383690000000004,-1.5156471000000002
19963,13:45:36.882000,3.2559742999999997,5.774566200000001,1.1826848,-1.5765768999999998,0.3276373,-1.4887691
19964,13:45:36.892000,3.3732852999999996,7.0961084,1.4843413,-1.5765768999999998,0.3276373,-1.4887691
19965,13:45:36.901000,3.4139847999999997,8.2811871,1.4220946,-1.3578874,0.2897637,-1.4533388999999999
19966,13:45:36.911000,3.3325856,8.659455300000001,1.3071779,-1.2198319,0.2909854,-1.4276826
19967,13:45:36.920000,3.0309291000000003,8.362587,0.9863687,-1.1880671,0.320307,-1.4093566000000002
19968,13:45:36.930000,2.8944654,8.0729008,0.7278060000000001,-1.2247188999999998,0.3728413,-1.3653743
19969,13:45:36.940000,2.6766026000000003,8.1830292,0.6368303000000001,-1.2540405000000001,0.41682359999999996,-1.3189486000000001
19970,13:45:36.951000,2.7053316,8.4583511,0.6918946,-1.2308276000000002,0.4253757000000001,-1.2285407
19971,13:45:36.959000,2.3725517000000003,8.6666374,0.8977870000000001,-1.2308276000000002,0.4253757000000001,-1.2285407
19972,13:45:36.969000,1.8985202,8.9252005,1.0031273,-1.2357143999999998,0.41682359999999996,-1.1845583999999998
19973,13:45:36.982000,2.0780778000000004,8.7360659,0.9959450000000001,-1.3090183000000002,0.36428920000000004,-1.0587204
19974,13:45:36.988000,2.4850745,8.467927,1.0150979,-1.3090183000000002,0.36428920000000004,-1.0587204
19975,13:45:37.002000,2.7173021,8.542143800000002,1.1348027,-1.3566657,0.2494466,-0.8998955
19976,13:45:37.007000,2.9782588,8.695366900000002,1.2904191999999999,-1.3566657,0.2494466,-0.8998955
19977,13:45:37.018000,3.1649985000000003,8.453562699999999,1.4795530000000001,-1.3762133,0.2946506,-0.6518844
19978,13:45:37.027000,3.270339,7.819126600000001,1.5992579,-1.4250826,0.3716196,-0.532155
19979,13:45:37.036000,3.0405054,7.3762178,1.7117807,-1.4250826,0.3716196,-0.532155
19980,13:45:37.047000,2.7675784,6.9955564,1.9128848000000003,-1.4434084999999999,0.47180140000000004,-0.4173124
19981,13:45:37.056000,2.5568974,6.2916913,1.9416142,-1.4092001,0.6672781,-0.25848760000000004
19982,13:45:37.067000,2.4204338,5.022819,2.1211715,-1.3652178,0.7381384,-0.2438268
19983,13:45:37.076000,2.5425327,4.524846599999999,2.305517,-1.3652178,0.7381384,-0.2438268
19984,13:45:37.086000,2.9686825,4.9533906,3.0476878,-1.0267986999999998,0.8444288000000001,-0.3574476
19985,13:45:37.098000,2.9950175,6.4640665,3.9646275,-0.8410958000000001,0.9213978999999999,-0.4112037
19986,13:45:37.104000,2.056531,7.512682000000001,4.390777099999999,-0.8410958000000001,0.9213978999999999,-0.4112037
19987,13:45:37.115000,1.2090199,7.3450952,4.6373695999999995,-0.9021823,1.1046572000000001,-0.3708867
19988,13:45:37.123000,0.4740316,7.0745621,4.9318433,-0.9021823,1.1046572000000001,-0.3708867
19989,13:45:37.133000,-0.3758735,7.0410447,5.164071099999999,-0.9644905,1.0985486999999998,-0.4124255
19990,13:45:37.146000,-0.7852644,7.2613015,5.5255799,-0.8239917,0.9287281999999999,-0.5455939999999999
19991,13:45:37.152000,-1.211414,7.471982000000001,5.5327621,-0.8239917,0.9287281999999999,-0.5455939999999999
19992,13:45:37.164000,-1.2401432,7.6515393,5.5064268,-0.5747589,0.5414399999999999,-0.6286716
19993,13:45:37.172000,-0.9193339,7.8646145,5.3364458,-0.4489207,0.29831579999999996,-0.6592148
19994,13:45:37.182000,-0.387844,8.300340700000001,5.2119532,-0.330413,0.0722959,-0.6677668999999999
19995,13:45:37.191000,-0.0406997,8.829436300000001,5.1568885,-0.330413,0.0722959,-0.6677668999999999
19996,13:45:37.200000,0.265745,9.6625834,5.0084542999999995,-0.23878320000000003,-0.1170722,-0.6384454
19997,13:45:37.212000,0.8259639999999999,9.8636866,4.4697824,-0.2522223,-0.38951779999999997,-0.4869509
19998,13:45:37.221000,1.2952073999999998,9.712859199999999,4.177702399999999,-0.3450737,-0.4652651,-0.4087602
19999,13:45:37.232000,1.6974159,9.2699499,3.7252178,-0.43059480000000006,-0.4884779,-0.30857840000000003
20000,13:45:37.240000,2.0517426,8.839013099999999,3.44032,-0.43059480000000006,-0.4884779,-0.30857840000000003
20001,13:45:37.250000,2.4874685000000003,8.9323816,3.2823095,-0.5332201,-0.39807,-0.1778534
20002,13:45:37.263000,2.7963072999999996,8.9491405,3.299068,-0.5637633000000001,-0.2893361,-0.14975360000000001
20003,13:45:37.269000,2.863342,8.872530000000001,3.3397677000000003,-0.5637633000000001,-0.2893361,-0.14975360000000001
20004,13:45:37.281000,2.6071734,8.5349617,3.4044084999999997,-0.650506,0.0026573,-0.1509753
20005,13:45:37.289000,2.3103054,8.1614828,3.4307434999999997,-0.6700537,0.12483019999999999,-0.1473102
20006,13:45:37.299000,2.0685015,8.2883701,3.5193252999999998,-0.6431756999999999,0.2140165,-0.13875810000000002
20007,13:45:37.311000,1.7668449000000002,8.582843800000001,3.6964886,-0.6431756999999999,0.2140165,-0.13875810000000002
20008,13:45:37.317000,1.5322232,8.587632199999998,3.8832282999999994,-0.5637633000000001,0.3410763,-0.1338711
20009,13:45:37.329000,1.4843413,8.5948153,3.9861746,-0.546659,0.3691761,-0.1265408
20010,13:45:37.347000,1.2688723999999998,8.688183800000001,4.0867267,-0.546659,0.3691761,-0.1265408
20011,13:45:37.348000,1.091709,8.776765800000002,4.2231898,-0.546659,0.3691761,-0.1265408
20012,13:45:37.360000,0.9097575000000001,8.5301743,4.2064314000000005,-0.524668,0.3911672,-0.10699310000000001
20013,13:45:37.365000,0.9025753000000001,8.2931576,4.1130619,-0.5222244,0.37406300000000003,-0.11921040000000001
20014,13:45:37.376000,0.9959450000000001,8.2045765,4.177702399999999,-0.4977899,0.3557371,-0.1399798
20015,13:45:37.385000,0.9313045,8.257247,4.1848845,-0.4977899,0.3557371,-0.1399798
20016,13:45:37.394000,0.8331464,7.9795308,4.1800966,-0.46602489999999996,0.34718499999999997,-0.1668578
20017,13:45:37.405000,0.7493529000000001,7.7473035,4.0532093,-0.45258590000000004,0.3435198,-0.1961793
20018,13:45:37.414000,0.8139936,7.7473035,4.0986972,-0.4379251,0.333746,-0.23160949999999997
20019,13:45:37.425000,0.8283582,8.0776892,4.266284,-0.3377433,0.301981,-0.2841439
20020,13:45:37.434000,0.8522992,8.290763900000002,4.2926192,-0.3377433,0.301981,-0.2841439
20021,13:45:37.447000,0.9432749,8.3841343,4.2471309,-0.3059784,0.2946506,-0.306135
20022,13:45:37.453000,1.0270684,8.661849,4.295013,-0.3035349,0.2873203,-0.3305696
20023,13:45:37.462000,0.9504572,8.848588900000001,4.3117719,-0.3010914,0.2909854,-0.3501172
20024,13:45:37.475000,0.8594815,8.791131,4.3620481,-0.3023131,0.30808959999999996,-0.36477800000000005
20025,13:45:37.481000,0.5602191,8.7169142,4.2399492,-0.3194174,0.3288591,-0.3708867
20026,13:45:37.495000,0.5051548,8.4200449,4.1657319,-0.343852,0.3520719,-0.3745518
20027,13:45:37.501000,0.47642559999999995,8.4822922,4.352471400000001,-0.343852,0.3520719,-0.3745518
20028,13:45:37.512000,0.4548787,9.0305405,4.7283449,-0.343852,0.3410763,-0.378217
20029,13:45:37.522000,0.4836079000000001,9.384866699999998,5.0515485,-0.3780604,0.3276373,-0.3953212
20030,13:45:37.532000,0.4069968,9.454296099999999,5.178435299999999,-0.45625109999999997,0.32397209999999993,-0.4136472
20031,13:45:37.545000,0.36869120000000005,9.116727800000001,5.125765299999999,-0.5527678,0.3264156,-0.4283079000000001
20032,13:45:37.549000,0.459667,8.8557711,5.097035900000001,-0.5527678,0.3264156,-0.4283079000000001
20033,13:45:37.561000,0.411785,9.0736341,5.2382879,-0.6321800999999999,0.3313025,-0.4307514
20034,13:45:37.569000,0.2489863,9.3058624,5.33884,-0.6309584,0.3484067,-0.41853409999999996
20035,13:45:37.580000,0.2968683,9.3752909,5.4824858,-0.6407322,0.3557371,-0.4112037
20036,13:45:37.596000,0.0933698,9.542878199999999,5.5590972999999995,-0.6541712,0.360624,-0.4075385
20037,13:45:37.601000,0.023941,9.5572424,5.5614915,-0.6737189,0.36428920000000004,-0.40387340000000005
20038,13:45:37.612000,0.05745840000000001,9.5237246,5.5614915,-0.6981535,0.3496284,-0.40265159999999994
20039,13:45:37.617000,-0.0359115,9.4662657,5.530367900000001,-0.6981535,0.3496284,-0.40265159999999994
20040,13:45:37.628000,-0.1268872,9.1598225,5.317293599999999,-0.7494662,0.32275040000000005,-0.3831039
20041,13:45:37.637000,-0.07661119999999999,8.9036531,5.2287116,-0.7665703,0.29831579999999996,-0.3733301
20042,13:45:37.647000,-0.1149167,8.8366184,5.147312599999999,-0.7665703,0.29831579999999996,-0.3733301
20043,13:45:37.660000,-0.11252260000000001,8.6786079,5.039578,-0.7506878,0.2579987,-0.3501172
20044,13:45:37.666000,-0.047882,8.669032099999999,5.0754895,-0.7506878,0.2579987,-0.3501172
20045,13:45:37.679000,0.0215469,8.712124800000002,5.1114011,-0.7311403000000001,0.211573,-0.31957399999999997
20046,13:45:37.686000,-0.05745840000000001,8.83183,5.1544943,-0.7286967,0.19691229999999998,-0.3073567
20047,13:45:37.696000,-0.16758689999999998,8.7695837,5.226317400000001,-0.7286967,0.19691229999999998,-0.3073567
20048,13:45:37.709000,-0.2777155,8.5469332,5.310111,-0.7690138000000001,0.1712559,-0.27803520000000004
20049,13:45:37.716000,-0.3806617,8.2883701,5.413057299999999,-0.7922267,0.1553735,-0.2682614
20050,13:45:37.729000,-0.4620611,8.0034723,5.595008900000001,-0.7922267,0.1370475,-0.25848760000000004
20051,13:45:37.734000,-0.6272539,7.730544999999999,5.848783,-0.7922267,0.1370475,-0.25848760000000004
20052,13:45:37.744000,-0.6942885999999999,7.5102877999999995,6.083405,-0.772679,0.12116500000000001,-0.23893989999999998
20053,13:45:37.756000,-0.6320420999999999,7.407341499999999,6.3371797,-0.682271,0.0759611,-0.1851838
20054,13:45:37.764000,-0.7278060000000001,7.342700999999999,6.576589599999999,-0.6077454999999999,0.06252200000000001,-0.157084
20055,13:45:37.775000,-0.6751359,7.230177900000001,6.696293799999999,-0.6077454999999999,0.06252200000000001,-0.157084
20056,13:45:37.783000,-0.6224656999999999,6.9811921,6.8519106,-0.524668,0.060078599999999996,-0.12287560000000002
20057,13:45:37.793000,-0.4716375,6.945280599999999,6.885428,-0.3059784,0.0784045,-0.05690219999999999
20058,13:45:37.802000,-0.3327797,7.0530152,6.9500684999999995,-0.3059784,0.0784045,-0.05690219999999999
20059,13:45:37.812000,-0.12928130000000002,7.088926299999999,6.885428,-0.013985,0.1712559,0.0102929
20060,13:45:37.856000,0.12928130000000002,6.8471227,6.753752700000001,0.1240704,0.2579987,0.053053499999999996
20061,13:45:37.859000,0.3615089,6.547860099999999,6.6627769,0.1240704,0.2579987,0.053053499999999996
20062,13:45:37.860000,0.33517379999999997,6.152833900000001,6.394638099999999,0.1240704,0.2579987,0.053053499999999996
20063,13:45:37.860000,-0.2250453,5.7817483,6.1288929,0.1240704,0.2579987,0.053053499999999996
20064,13:45:37.861000,-0.9384867,5.6931671999999995,5.6811967,0.1240704,0.2579987,0.053053499999999996
20065,13:45:37.872000,-1.4125183000000001,6.023552400000001,5.3053231,1.2883786,0.7906728,0.6223794
20066,13:45:37.879000,-1.5489819,6.9357042,5.1066127,1.2883786,0.7906728,0.6223794
20067,13:45:37.888000,-1.3885771999999998,7.7856088,4.6900395999999995,1.9114605,0.45836229999999994,0.6455922
20068,13:45:37.899000,-1.5274348999999998,8.803100599999999,4.316559799999999,1.9114605,0.45836229999999994,0.6455922
20069,13:45:37.909000,-0.8163876999999999,8.9970226,4.2519193,2.0482943,0.1883602,0.5612929
20070,13:45:37.918000,-0.4788198,9.214885699999998,3.8904104,2.0250814,-0.1683848,0.41712879999999997
20071,13:45:37.928000,-0.8618754999999999,9.516543400000002,2.9686825,1.9310082,-0.5862163,0.2155435
20072,13:45:37.942000,-0.9432749,9.7176466,3.0859932999999997,1.7196491000000003,-1.4964046,-0.46740329999999997
20073,13:45:37.947000,-1.163532,9.6769466,2.7436373,1.7196491000000003,-1.4964046,-0.46740329999999997
20074,13:45:37.956000,-1.2449313,9.796651800000001,2.5856267999999996,1.6170236999999998,-2.1060476,-0.8485828999999999
20075,13:45:37.966000,-1.4101242,9.3992319,2.7029376,1.3616823,-3.4499502,-1.4655561000000001
20076,13:45:37.976000,-2.3821282000000004,8.6857901,1.7524803,1.3616823,-3.4499502,-1.4655561000000001
20077,13:45:37.988000,-3.9143515,7.8574319,2.4563452999999997,1.3592389,-4.5727191,-1.9029353999999998
20078,13:45:37.996000,-5.427422,6.617289100000001,2.9040418,1.3592389,-4.5727191,-1.9029353999999998
20079,13:45:38.009000,-5.573462,5.6141615,3.2009101,1.9798773999999997,-5.2703266,-2.518687
20080,13:45:38.016000,0.725412,4.900720099999999,7.3331246,2.4209218,-6.0045862,-2.7459287999999997
20081,13:45:38.024000,10.198861099999998,4.479359099999999,6.978797900000001,2.4209218,-6.0045862,-2.7459287999999997
20082,13:45:38.033000,8.9180183,7.2565136,6.0762224,3.0195692000000003,-6.1365328,-2.6750684
20083,13:45:38.043000,-0.0646407,10.3185663,5.9804587,3.7098462999999997,-4.4798679,-1.9908998
20084,13:45:38.059000,-5.3364458,10.857237800000002,4.8959322,4.1069083,-2.8781807,-1.2053279
20085,13:45:38.063000,-4.505693900000001,9.571606599999999,4.8456559,4.1069083,-2.8781807,-1.2053279
20086,13:45:38.073000,-0.44530240000000004,6.7609348,3.1314812,3.8356845,-3.4291809,-1.6317114
20087,13:45:38.081000,1.5417996999999999,4.457811799999999,1.1443793,3.6670858999999996,-3.3253337999999997,-1.5608511
20088,13:45:38.091000,0.7876585,3.6557887000000004,-0.21068070000000003,3.6670858999999996,-3.3253337999999997,-1.5608511
20089,13:45:38.108000,0.17716329999999997,3.6246655,-1.0270684,3.6487597999999997,-1.98754,-1.2725229
20090,13:45:38.111000,0.5745836999999999,4.1824902999999996,-1.4077301000000002,3.6487597999999997,-1.98754,-1.2725229
20091,13:45:38.123000,1.0534035,5.0156369000000005,-1.6519281000000003,3.4337353999999998,-0.8598836999999999,-0.6860929
20092,13:45:38.130000,1.3167541999999999,5.5495209999999995,-1.2736604999999999,3.4337353999999998,-0.8598836999999999,-0.6860929
20093,13:45:38.141000,0.5003666,6.4999781,-1.1012853,2.9254961,0.1517083,-0.047128300000000005
20094,13:45:38.149000,0.2729273,7.7903975999999995,-0.49557840000000003,2.9254961,0.1517083,-0.047128300000000005
20095,13:45:38.159000,0.095764,9.2843151,0.055064300000000004,2.9560392,0.5512138000000001,0.2167652
20096,13:45:38.170000,-0.2034984,10.5914927,0.5769778,3.09776,0.8273246999999999,0.43301130000000004
20097,13:45:38.178000,-0.3327797,11.568285000000001,0.5410663,3.1392987,1.0142493000000001,0.6016099
20098,13:45:38.188000,-0.45727290000000004,11.802907000000001,-0.0023940999999999997,2.8473053,1.1034355,0.714009
20099,13:45:38.199000,-0.1197049,11.513220800000001,-0.6248598000000001,2.8473053,1.1034355,0.714009
20100,13:45:38.210000,0.1651928,11.8076954,-0.7565352,2.4465779999999997,0.7369167,0.705457
20101,13:45:38.221000,0.241804,12.2984848,-1.4029418,2.4465779999999997,0.7369167,0.705457
20102,13:45:38.228000,0.16758689999999998,12.6911173,-1.4963118,2.2401058999999997,0.5316662,0.5551842
20103,13:45:38.238000,0.316021,12.619294199999999,-1.6112285,1.7282011999999998,0.080848,0.42445920000000004
20104,13:45:38.247000,0.6320420999999999,12.5402889,-1.6926279,1.7282011999999998,0.080848,0.42445920000000004
20105,13:45:38.257000,0.7589293,12.4397373,-1.8554264999999999,1.3616823,-0.13906329999999997,0.3731466
20106,13:45:38.266000,0.7373824000000001,12.2003269,-1.6591103999999999,0.9853896999999999,-0.3174358,0.3499337
20107,13:45:38.277000,0.8929988000000001,11.8914881,-1.5082823,0.3781901,-0.5202429000000001,0.32427740000000005
20108,13:45:38.292000,1.2233844999999999,11.7406597,-1.3263308,0.1069662,-0.5862163,0.3059515
20109,13:45:38.296000,1.3311188,11.8412123,-1.1228323,0.1069662,-0.5862163,0.3059515
20110,13:45:38.307000,1.5537702,12.0016174,-1.041433,-0.0872888,-0.5886598000000001,0.2912907
20111,13:45:38.316000,1.8099386999999998,11.9010649,-0.9145458000000001,-0.235118,-0.5397906,0.2692996
20112,13:45:38.325000,1.7955738999999997,11.8148766,-0.8738461,-0.36706479999999997,-0.4652651,0.2411998
20113,13:45:38.339000,1.8482443,11.656867,-0.9432749,-0.5869762,-0.2612363,0.23264770000000004
20114,13:45:38.344000,1.9918901000000002,11.503644,-0.9313045,-0.6749406,-0.131733,0.25097359999999996
20115,13:45:38.356000,1.9511904999999998,11.3815451,-0.8020231,-0.7555748000000001,0.0124311,0.2827386
20116,13:45:38.364000,2.1020187999999997,11.307328199999999,-0.629648,-0.7555748000000001,0.0124311,0.2827386
20117,13:45:38.373000,2.0924423,11.0894651,-0.48121379999999997,-0.8410958000000001,0.1602604,0.3193905
20118,13:45:38.386000,2.0182252,10.6728916,-0.4740316,-1.0842201,0.4082715,0.36703790000000003
20119,13:45:38.392000,1.8793674999999999,10.3305359,-0.32559740000000004,-1.0842201,0.4082715,0.36703790000000003
20120,13:45:38.402000,1.7620566000000002,10.2036486,-0.3423561,-1.4287478,0.5084532,0.380477
20121,13:45:38.412000,1.6567163,10.021697,-0.2154689,-1.4287478,0.5084532,0.380477
20122,13:45:38.422000,1.503494,9.7798929,-0.023941,-1.8649050999999999,0.48401869999999997,0.3719248
20123,13:45:38.434000,1.3766067,9.3369846,0.2082866,-2.12269,0.45225370000000004,0.3829204
20124,13:45:38.440000,1.3598481000000002,8.9252005,0.4237555,-2.12269,0.45225370000000004,0.3829204
20125,13:45:38.452000,1.3646363000000001,8.2931576,0.581766,-2.583282,0.3679544,0.3951377
20126,13:45:38.461000,1.3119662,7.7209687,0.775688,-2.7555459,0.31664169999999997,0.41468540000000004
20127,13:45:38.470000,1.4197004999999998,7.3594593999999995,0.9696100000000001,-2.7555459,0.31664169999999997,0.41468540000000004
20128,13:45:38.481000,1.6160166,7.3067894,1.3143603000000001,-2.9656835,0.2653291,0.4831022
20129,13:45:38.490000,1.7548743000000002,7.2541189,1.5824993,-3.0341002999999995,0.3032027,0.5417451999999999
20130,13:45:38.503000,1.9607668999999999,7.110473599999999,1.9033084999999998,-3.129395,0.392389,0.6260446
20131,13:45:38.509000,2.0278015,6.866274799999999,2.2265117,-3.2417943,0.5377748,0.7286698
20132,13:45:38.520000,2.3150935,6.626865400000001,2.6047795,-3.2417943,0.5377748,0.7286698
20133,13:45:38.529000,2.473104,6.3180265,2.8202484,-3.3309805,0.7014865,0.8422905999999999
20134,13:45:38.539000,2.5401387000000004,6.143257599999999,3.299068,-3.4128363,1.1718524,1.0548716999999999
20135,13:45:38.551000,2.5712618999999997,5.9828529,4.1872787,-3.3529716,1.4161983,1.1012973999999998
20136,13:45:38.557000,2.5114095,6.2557802,4.946208,-3.2320203999999997,1.6043446000000001,1.1086278
20137,13:45:38.568000,2.6885729,6.904581100000001,5.4872746,-3.053648,1.7338479,1.1098495000000002
20138,13:45:38.576000,2.7244842,7.239754700000001,5.1233716,-2.8887142999999997,1.8951161,1.1465013000000002
20139,13:45:38.586000,2.7939133999999997,7.1248379,5.2718053,-2.7311113,2.0844841,1.2063661
20140,13:45:38.596000,2.8609481,6.885428,5.3268695,-2.6260426,2.3630385,1.3224303999999998
20141,13:45:38.605000,3.1482398999999996,6.1959276,5.772172,-2.6260426,2.3630385,1.3224303999999998
20142,13:45:38.617000,4.3141661,4.6086402,6.267750299999999,-2.5576258,3.0056682,1.6022065
20143,13:45:38.625000,6.0307345,3.1099343,6.4449139,-2.5576258,3.0056682,1.6022065
20144,13:45:38.635000,6.8902159,3.3828616,5.539944599999999,-2.5490737,3.4577080999999996,2.078681
20145,13:45:38.645000,7.1822957999999995,3.5696013,5.9684882,-2.3988007999999996,4.2945929000000005,2.8520357999999995
20146,13:45:38.655000,5.6907725,4.369229799999999,7.706604,-1.2467101,6.607327000000001,3.4164746
20147,13:45:38.668000,1.0150979,7.3283366999999995,6.3132386,-0.9840382,7.942677000000001,4.2154856
20148,13:45:38.673000,-4.7881975,10.3472948,3.9646275,-0.9840382,7.942677000000001,4.2154856
20149,13:45:38.684000,-11.2809935,12.829975099999999,6.8327579,-0.9205083000000001,7.6091452,5.0157185
20150,13:45:38.693000,-16.1577721,13.430893900000001,4.7139807000000005,-0.9205083000000001,7.6091452,5.0157185
20151,13:45:38.704000,-10.6202221,3.6246655,-12.8203993,-0.8191046999999999,5.763111599999999,3.8110932999999996
20152,13:45:38.718000,1.7476921000000003,4.5511813,-5.6955609,-0.8826345999999999,-0.7963538,-1.0660506
20153,13:45:38.722000,8.2069702,2.3797342999999995,11.0391893,0.4087334,-2.3027463,-0.8730174999999999
20154,13:45:38.736000,0.10773440000000001,-4.3668360999999996,12.0590754,0.9805027,-1.0089347,-0.5932415
20155,13:45:38.741000,-3.4570785,-1.1276205,4.970149,0.9805027,-1.0089347,-0.5932415
20156,13:45:38.751000,-3.7539468,4.486540799999999,5.302928400000001,1.6964362000000002,-0.6863981,0.8031953000000001
20157,13:45:38.761000,-2.3222756,5.33884,6.3276029000000005,2.3952652999999997,-1.5562694,0.8312951
20158,13:45:38.771000,1.0845268,5.1832242,5.8152661,2.3952652999999997,-1.5562694,0.8312951
20159,13:45:38.784000,3.8951987999999997,7.6156277999999995,5.2047706,3.0696602000000004,-2.322294,0.7726521
20160,13:45:38.790000,4.4817529,9.3681078,3.2942801,3.0696602000000004,-2.322294,0.7726521
20161,13:45:38.801000,3.5624189,8.9204121,1.9823137999999998,3.0892076,-1.5648215,1.1355058
20162,13:45:38.810000,2.353399,7.754486099999999,1.3191483999999998,3.0892076,-1.5648215,1.1355058
20163,13:45:38.820000,1.0605857,5.597403,1.3694245,2.7898841,-1.1140033999999999,1.0951886999999998
20164,13:45:38.834000,0.3519325,3.2320333,0.9432749,2.7898841,-1.1140033999999999,1.0951886999999998
20165,13:45:38.838000,2.0972304,2.8944654,0.2370158,2.7055848,-1.2190721000000002,1.0512065000000002
20166,13:45:38.850000,4.156155600000001,3.7730997000000004,-0.4668492,2.8143187000000003,-1.545274,0.9290335
20167,13:45:38.858000,4.5032997,4.7834096,-1.623199,3.0806556,-1.8311586,0.8068605
20168,13:45:38.868000,4.426688700000001,5.4154515,-2.303123,3.4606135,-1.6039169,0.9937851000000001
20169,13:45:38.880000,5.2335,5.9182119,-2.5736562999999997,3.508261,-1.5257263,1.1574969
20170,13:45:38.887000,5.5064268,6.3084502,-2.7149078999999996,3.508261,-1.5257263,1.1574969
20171,13:45:38.899000,5.0898538,6.4880075,-2.7651839,3.4202964,-1.2520586999999999,1.4091731
20172,13:45:38.906000,4.5511813,6.246203400000001,-2.8992536,3.2932365,-1.0883471000000002,1.4678162000000001
20173,13:45:38.919000,3.9574451,5.796113,-3.1195107,3.1661767999999997,-0.9930521999999999,1.4788117
20174,13:45:38.924000,3.7419762999999997,5.2789874,-3.4283495000000004,3.1661767999999997,-0.9930521999999999,1.4788117
20175,13:45:38.935000,4.137002900000001,5.1137948,-3.4594727,3.0232343999999998,-1.0199302,1.4885856000000002
20176,13:45:38.949000,4.3476834,5.2430763,-3.6126949999999995,3.0354517000000003,-1.0455866,1.5350113
20177,13:45:38.953000,4.3931708,5.6069794,-3.7300057,3.0354517000000003,-1.0455866,1.5350113
20178,13:45:38.964000,4.5679407,6.035522900000001,-3.4738371,3.0843208,-1.0150433,1.6828406000000002
20179,13:45:38.972000,4.2255845,6.1264987,-3.4115907999999995,3.0843208,-1.0150433,1.6828406000000002
20180,13:45:38.982000,4.0939087999999995,5.6165557,-3.3708911,2.9633696,-1.0358127000000001,1.8270046999999998
20181,13:45:38.993000,4.1681261,5.1760416,-3.6246655,2.9633696,-1.0358127000000001,1.8270046999999998
20182,13:45:39.002000,4.821714900000001,6.0139761,-4.5990634,2.9291611,-1.1689813,1.9076388
20183,13:45:39.014000,7.0865326,9.1646099,-4.9294496,2.9291611,-1.1689813,1.9076388
20184,13:45:39.022000,9.1382751,13.184302300000002,-4.4673886,3.255363,-1.296041,1.8795389999999998
20185,13:45:39.033000,9.018569900000001,15.080428099999999,-5.2765937,4.4795361,-1.5611565,2.0493593
20186,13:45:39.042000,7.1559610000000005,13.260912900000001,-7.3043957,4.4795361,-1.5611565,2.0493593
20187,13:45:39.052000,6.6603823,7.1248379,-11.0894651,4.5943785,-1.9325621,2.918009
20188,13:45:39.065000,8.290763900000002,3.4834137000000003,-13.634391800000001,4.5699439,-2.3772717,3.1244812
20189,13:45:39.071000,9.571606599999999,2.2576351000000003,-14.989452400000001,4.5699439,-2.3772717,3.1244812
20190,13:45:39.083000,9.128699300000001,2.2169354,-15.4874249,4.7703074999999995,-2.6191742000000002,2.9656564999999997
20191,13:45:39.091000,8.3554049,2.4060693,-15.1570387,4.5846047,-2.1659126,2.1495411
20192,13:45:39.100000,8.0274134,3.6246655,-14.364591599999999,4.5846047,-2.1659126,2.1495411
20193,13:45:39.116000,8.3793459,6.2198687,-13.3255539,3.7770414,-1.915458,1.2808915
20194,13:45:39.120000,8.9706879,8.0848713,-12.894616099999999,3.7770414,-1.915458,1.2808915
20195,13:45:39.140000,10.4239063,5.7865367,-14.577667199999999,3.3702053999999997,-1.8946886000000003,0.9229248
20196,13:45:39.149000,11.9106407,4.405141400000001,-14.627943,2.5492034,-1.9301188000000002,0.45133720000000005
20197,13:45:39.162000,12.9089804,4.3644419,-14.999029199999999,2.3830481,-1.9679923,0.3914725
20198,13:45:39.168000,13.943230599999998,5.8392072,-14.960722899999999,2.3415093,-1.9032407,0.5124237
20199,13:45:39.181000,14.2999516,7.491135099999999,-15.0516987,1.9578862000000001,-1.2447286,0.6663616
20200,13:45:39.188000,13.1555729,7.550987700000001,-15.3796902,1.9578862000000001,-1.2447286,0.6663616
20201,13:45:39.199000,11.477309199999999,6.3252090999999995,-15.875268900000002,0.8436690999999998,-0.17815870000000003,0.511202
20202,13:45:39.207000,10.028880099999999,5.0683069000000005,-15.7818995,0.8436690999999998,-0.17815870000000003,0.511202
20203,13:45:39.217000,9.195733099999998,4.7570739,-14.917629199999999,0.3378731,0.2726595,0.4122419
20204,13:45:39.230000,8.774372099999999,5.1736474,-13.878589600000002,-0.194801,0.8725286,0.0860402
20205,13:45:39.236000,8.7959194,5.891877200000001,-13.0502319,-0.194801,0.8725286,0.0860402
20206,13:45:39.247000,8.83183,6.052281400000001,-12.8084278,-0.43059480000000006,1.0105841,-0.09233229999999999
20207,13:45:39.256000,8.3889217,5.7218962,-13.0071383,-0.7250314999999999,1.1242048999999998,-0.2438268
20208,13:45:39.265000,8.3673754,5.362781,-12.9424982,-1.0341291,1.2537081,-0.3684432
20209,13:45:39.275000,8.520597500000001,5.2478647,-12.925739300000002,-1.3065748,1.340451,-0.5174942
20210,13:45:39.285000,9.195733099999998,5.5040331,-12.770122500000001,-1.5057167,1.3746595,-0.7044188
20211,13:45:39.297000,9.9426918,5.597403,-12.281726800000001,-1.8404706000000002,1.4161983,-1.1686758999999998
20212,13:45:39.305000,9.9546633,5.4776978,-12.0327396,-1.8404706000000002,1.4161983,-1.1686758999999998
20213,13:45:39.315000,9.858899099999999,5.1544943,-11.6305323,-2.3438232000000006,1.6874223000000002,-1.5315295
20214,13:45:39.323000,9.7774992,4.687645400000001,-11.704749099999999,-2.3438232000000006,1.6874223000000002,-1.5315295
20215,13:45:39.333000,9.6362467,4.654128099999999,-11.357603999999998,-2.6211557,1.8254776000000001,-1.709902
20216,13:45:39.349000,9.2819214,4.5799112,-10.8309031,-3.0646433999999996,2.1871095,-2.004339
20217,13:45:39.352000,8.4655333,4.0220861,-10.2922306,-3.0646433999999996,2.1871095,-2.004339
20218,13:45:39.362000,7.701815600000001,3.2487918999999996,-9.5668192,-3.2674506,2.3520429,-2.0788643
20219,13:45:39.372000,6.978797900000001,2.4515569,-8.788737300000001,-3.4323839999999994,2.4681072,-2.0861948
20220,13:45:39.382000,6.2318392,2.1499007000000003,-7.8478556,-3.4372709,2.5939452999999997,-2.0202215
20221,13:45:39.394000,5.5543089000000005,2.7795486,-6.9117632,-3.2588985,2.6012757,-1.9383655
20222,13:45:39.401000,5.6285262000000005,3.8999867,-5.5902205,-3.2588985,2.6012757,-1.9383655
20223,13:45:39.412000,5.2765937,5.3005347,-4.5009055,-2.7421069,2.5169764,-1.6805806
20224,13:45:39.421000,4.8624144,5.8870888,-3.5743894999999997,-2.7421069,2.5169764,-1.6805806
20225,13:45:39.430000,4.115455600000001,6.025946599999999,-2.8441892,-2.434231,2.4180164,-1.4679997
20226,13:45:39.443000,3.0931754000000002,5.1904058,-2.4563452999999997,-2.434231,2.4180164,-1.4679997
20227,13:45:39.450000,2.3246701,3.6270595,-2.327064,-2.2900669999999996,2.2323134,-1.4215739
20228,13:45:39.461000,1.6638986,3.0835993,-1.7907859,-2.1397943,2.0490541,-1.4875473
20229,13:45:39.469000,1.1563497999999999,4.1920671,-0.9863687,-2.1397943,2.0490541,-1.4875473
20230,13:45:39.479000,1.0150979,5.312504799999999,0.028729200000000003,-1.6596546000000003,1.6202271000000001,-1.7905363
20231,13:45:39.488000,0.3974204,6.2653565,0.557825,-1.6596546000000003,1.6202271000000001,-1.7905363
20232,13:45:39.497000,0.0790053,7.2086315,0.8666638000000001,-1.5179340000000001,1.3575552,-1.9322568
20233,13:45:39.510000,0.7349883,7.778427099999999,1.3023897,-1.3737698999999999,0.685604,-2.1069641
20234,13:45:39.517000,1.0773443999999999,8.3793459,1.237749,-1.3737698999999999,0.685604,-2.1069641
20235,13:45:39.528000,1.6208049,8.819860499999999,1.1371969,-1.3004662,-0.022999000000000002,-2.0348821
20236,13:45:39.537000,2.2983347999999997,8.9204121,0.9791864,-1.3004662,-0.022999000000000002,-2.0348821
20237,13:45:39.547000,2.8274305,9.2603741,0.6583770999999999,-1.2515969,-0.5703338000000001,-1.8210794999999997
20238,13:45:39.559000,3.7443705,9.7344065,0.5051548,-1.2515969,-0.5703338000000001,-1.8210794999999997
20239,13:45:39.566000,4.6469455,9.923539199999999,0.2513804,-1.2112798999999999,-0.7560366999999999,-1.7477756999999998
20240,13:45:39.577000,5.4753041,9.8995981,0.09097569999999999,-1.1807367,-0.9197484,-1.6170506000000002
20241,13:45:39.585000,5.736260400000001,9.6003361,-0.22265120000000002,-1.1807367,-0.9197484,-1.6170506000000002
20242,13:45:39.596000,6.0642519,9.6721592,-0.5147311999999999,-1.1880671,-0.8097928000000001,-1.511982
20243,13:45:39.614000,5.9852471,10.1844959,-0.799629,-1.1880671,-0.8097928000000001,-1.511982
20244,13:45:39.626000,5.743443,10.1773138,-0.9073634,-1.2210537000000001,-0.443274,-1.4557824
20245,13:45:39.634000,5.312504799999999,10.483758,-0.9935510000000001,-1.2210537000000001,-0.443274,-1.4557824
20246,13:45:39.645000,5.2406821,10.8045683,-1.0055215,-1.3090183000000002,-0.2465755,-1.3995829
20247,13:45:39.654000,4.7139807000000005,10.651345300000001,-1.0845268,-1.3090183000000002,-0.2465755,-1.3995829
20248,13:45:39.663000,4.4626002,10.1844959,-1.2449313,-1.3823221,-0.1732717,-1.3837004
20249,13:45:39.676000,4.3261366,10.1294317,-1.2257784999999999,-1.5020514999999999,-0.0767551,-1.3592657
20250,13:45:39.682000,4.1609435,10.131826400000001,-1.1994434999999999,-1.5020514999999999,-0.0767551,-1.3592657
20251,13:45:39.695000,4.172914,9.8876276,-1.1994434999999999,-1.5692466,-0.0022296,-1.317727
20252,13:45:39.702000,4.2040377,9.775105499999999,-1.2784487,-1.5692466,-0.0022296,-1.317727
20253,13:45:39.711000,4.1513672,9.478237199999999,-1.2138082000000001,-1.5997899,0.0197615,-1.2835186
20254,13:45:39.721000,4.2471309,9.4423246,-1.1084677,-1.621781,0.049083,-1.2480883999999999
20255,13:45:39.731000,4.208825599999999,9.3058624,-0.9791864,-1.6315548,0.08940010000000001,-1.2236538000000001
20256,13:45:39.744000,4.0388446,8.7863417,-0.9025753000000001,-1.6339983,0.21523820000000002,-1.1882236000000002
20257,13:45:39.750000,3.6533947,8.4200449,-0.725412,-1.6339983,0.21523820000000002,-1.1882236000000002
20258,13:45:39.761000,3.1051458999999997,7.957984,-0.557825,-1.5460337,0.3789499,-1.208993
20259,13:45:39.770000,2.640691,7.5557756,-0.28010959999999996,-1.4495171,0.44003640000000005,-1.2285407
20260,13:45:39.780000,2.2121472,7.5007114,0.009576399999999999,-1.3200138000000001,0.46935790000000005,-1.2419797
20261,13:45:39.792000,2.0014665000000003,7.957984,0.44051409999999996,-1.1734062,0.4632493,-1.2456448999999998
20262,13:45:39.799000,1.7261453000000002,8.7432489,0.8044171999999999,-1.1734062,0.4632493,-1.2456448999999998
20263,13:45:39.809000,1.8386679,9.3274088,1.0294625,-1.0622288999999998,0.42293220000000004,-1.2334276000000002
20264,13:45:39.818000,1.4795530000000001,9.5356951,1.1156501,-1.0182467,0.3532937,-1.2077712999999999
20265,13:45:39.827000,1.1180441,9.0616636,1.0941031,-1.0414596,0.2848768,-1.1625673
20266,13:45:39.840000,0.9743982,8.829436300000001,1.0773443999999999,-1.1135415000000002,0.22379029999999997,-1.0892636
20267,13:45:39.847000,0.8690578999999999,9.0472994,1.2401432,-1.1575238,0.14071270000000002,-1.0196249
20268,13:45:39.862000,0.6320420999999999,9.427961300000002,1.2736604999999999,-1.0903287,-0.0010079000000000002,-0.8693523000000001
20269,13:45:39.865000,0.9839745999999999,9.552454,1.5130703,-1.0903287,-0.0010079000000000002,-0.8693523000000001
20270,13:45:39.877000,1.2999957,9.6889181,1.8075444999999999,-1.0671158,-0.0743117,-0.7899399
20271,13:45:39.886000,1.2138082000000001,9.681735,1.8697912,-1.0622288999999998,-0.1427285,-0.7325186
20272,13:45:39.895000,1.2305667,9.827775,2.0972304,-1.0646723999999999,-0.16105450000000002,-0.6738755999999999
20273,13:45:39.908000,1.0797385,10.0504274,2.4371924,-1.043903,-0.11829389999999998,-0.5712503000000001
20274,13:45:39.915000,0.8092054,10.3089886,2.8082778,-1.043903,-0.11829389999999998,-0.5712503000000001
20275,13:45:39.925000,0.3303856,9.811017,3.1147225,-0.9999207,0.0002138,-0.4466339
20276,13:45:39.935000,0.009576399999999999,8.6738195,3.3828616,-0.9999207,0.0002138,-0.4466339
20277,13:45:39.944000,0.4261496,7.285242599999999,4.0795441,-0.7555748000000001,0.0332005,-0.16319270000000002
20278,13:45:39.957000,-0.193922,6.653200599999999,3.7060647000000007,-0.44036859999999994,0.05519169999999999,0.09092710000000001
20279,13:45:39.963000,-1.0270684,6.282115,3.0093822,-0.44036859999999994,0.05519169999999999,0.09092710000000001
20280,13:45:39.979000,-1.4532180000000001,6.5334954000000005,2.1163833,0.4954762,-0.03277290000000001,0.5869492
20281,13:45:39.982000,-1.3598481000000002,7.232572599999999,2.0254076000000003,0.99272,-0.49336490000000005,0.7201177
20282,13:45:39.992000,-0.9432749,7.9891076000000005,1.7764213,1.3445781,-1.2044115,0.8105257
20283,13:45:40,0.316021,8.6426964,1.8051505,1.5376113999999999,-1.9350057,0.718896
20284,13:45:40.010000,1.5561641000000002,9.4973898,1.0941031,1.5376113999999999,-1.9350057,0.718896
20285,13:45:40.022000,2.5305624,10.2874422,1.3526658,1.6402366000000002,-3.2337041,0.4195723
20286,13:45:40.030000,3.0165646,10.6968327,0.7014709,1.6402366000000002,-3.2337041,0.4195723
20287,13:45:40.041000,2.7244842,10.194071800000001,0.7230178,1.4459816,-4.049819,-0.0349111
20288,13:45:40.051000,1.5010998,8.664242699999999,1.0701622,1.4459816,-4.049819,-0.0349111
20289,13:45:40.059000,-0.4500906,6.2629623,1.6399577,1.3152566,-4.2306352,-0.3440086
20290,13:45:40.072000,-2.7699722999999996,2.8058836,2.8537657000000003,1.4545337,-4.0608149,-0.8241483000000001
20291,13:45:40.079000,-5.654861,-0.3423561,2.8489776,1.4545337,-4.0608149,-0.8241483000000001
20292,13:45:40.090000,-6.8902159,-3.8161936,2.6981492,1.4862986999999999,-4.5140762,-0.5529243
20293,13:45:40.099000,-0.9863687,-5.8607535,2.2408764,1.4862986999999999,-4.5140762,-0.5529243
20294,13:45:40.108000,8.6522732,-2.3677638,1.7620566000000002,1.7734051,-5.834765900000001,-0.5333767
20295,13:45:40.118000,8.2261238,4.1848845,-1.4340651000000002,2.5992942,-6.7901583,-0.441747
20296,13:45:40.128000,6.143257599999999,8.506233199999999,0.0215469,3.873558,-5.8213267,-0.0422414
20297,13:45:40.139000,4.900720099999999,9.6601877,2.6646321,4.2144208,-3.121305,-0.5260463000000001
20298,13:45:40.157000,3.4762315999999998,3.0716287999999996,1.4819472,1.9212343999999997,-1.7236464,-0.333013
20299,13:45:40.166000,5.8224478,2.3150935,-0.5937365,1.9212343999999997,-1.7236464,-0.333013
20300,13:45:40.176000,5.226317400000001,6.0618582000000005,-1.3790008999999999,1.4044428,-1.4768572,-0.38921259999999996
20301,13:45:40.188000,3.9885685,10.8524504,-0.7038651,2.1240416,-0.2856709,-0.1412015
20302,13:45:40.195000,3.2033041,14.857776600000001,-0.2920801,2.1240416,-0.2856709,-0.1412015
20303,13:45:40.207000,2.9734707,16.813756899999998,-0.5961305,1.8173873,0.8737504,-0.0898889
20304,13:45:40.215000,2.7556078,17.223146399999997,0.7421706,1.8173873,0.8737504,-0.0898889
20305,13:45:40.224000,1.9511904999999998,16.7132034,0.9408808000000001,1.0452545,1.5347061000000002,0.3755901
20306,13:45:40.241000,2.2456646,14.6016083,1.2664783000000002,0.6164274000000001,1.6373312,0.38902909999999996
20307,13:45:40.244000,2.3318522,13.035867699999999,1.4268829,0.6164274000000001,1.6373312,0.38902909999999996
20308,13:45:40.257000,2.3821282000000004,11.939370199999999,1.1371969,0.4270593,1.3661072,0.3743683
20309,13:45:40.263000,2.6071734,11.541950199999999,1.2976014999999999,0.4270593,1.3661072,0.3743683
20310,13:45:40.273000,2.4946511,11.5563154,1.9655551,0.4478287,1.1486393999999998,0.3108384
20311,13:45:40.282000,1.9464022,11.2355051,2.4012811000000003,0.38307709999999995,0.9433889999999999,0.22776079999999999
20312,13:45:40.292000,1.7429038000000001,10.4885473,2.4587395,0.1778265,0.7735685999999999,0.12391379999999999
20313,13:45:40.303000,1.6255928999999998,9.7008877,2.4395863999999996,-0.1129451,0.6074134,0.0554969
20314,13:45:40.312000,1.8075444999999999,9.463872,2.5066216,-0.32308259999999994,0.464471,0.031062299999999998
20315,13:45:40.322000,2.2073591,9.7798929,2.6023853,-0.4208209,0.1822515,0.038392699999999995
20316,13:45:40.332000,2.6119618,10.5747337,2.6382967999999996,-0.4208209,0.1822515,0.038392699999999995
20317,13:45:40.341000,3.0165646,11.2115641,2.5305624,-0.33896509999999996,-0.08408550000000001,-0.0068113
20318,13:45:40.355000,3.2440037999999998,11.6041965,2.693361,-0.32063909999999995,-0.1341764,-0.0788933
20319,13:45:40.360000,3.3086444999999998,11.9178238,2.7556078,-0.32063909999999995,-0.1341764,-0.0788933
20320,13:45:40.372000,3.2870975,12.3248196,2.8154602000000004,-0.3133087,-0.1244026,-0.21450529999999998
20321,13:45:40.380000,3.2009101,12.547472,2.640691,-0.3133087,-0.1244026,-0.21450529999999998
20322,13:45:40.389000,3.1578162,12.4325552,2.4156458,-0.3035349,-0.0877507,-0.27314829999999996
20323,13:45:40.402000,3.1769691000000004,12.3032732,2.5185918999999997,-0.3157522,-0.0156687,-0.30980019999999997
20324,13:45:40.409000,3.1362693,12.243420599999999,2.6789966,-0.3487389,0.0906218,-0.3207957
20325,13:45:40.420000,2.863342,12.4134016,2.6359026,-0.415934,0.2140165,-0.3220175
20326,13:45:40.428000,2.8082778,12.7078762,2.6837847000000004,-0.5222244,0.3386329,-0.30124809999999996
20327,13:45:40.438000,2.7005434,12.9592571,2.8010955,-0.6615015999999999,0.47791000000000006,-0.27070479999999997
20328,13:45:40.446000,2.5975973999999997,13.1220551,2.4946511,-1.14775,0.7527991999999999,-0.23038779999999998
20329,13:45:40.458000,2.3749461,13.0382624,2.6263263,-1.14775,0.7527991999999999,-0.23038779999999998
20330,13:45:40.472000,2.2552409,12.5666237,2.9184062,-1.9284351000000002,1.055788,-0.2328312
20331,13:45:40.477000,1.9990726000000003,11.8603649,3.3110385,-1.9284351000000002,1.055788,-0.2328312
20332,13:45:40.487000,1.2569019,10.850055699999999,3.6677592000000003,-2.8813841,1.2744777,-0.3806605
20333,13:45:40.496000,0.7182297,9.222067800000001,3.7347938999999997,-2.8813841,1.2744777,-0.3806605
20334,13:45:40.506000,0.7876585,8.640301699999998,3.7970405,-3.7781334,1.2353823,-0.5052769
20335,13:45:40.518000,0.7637175,8.0776892,3.2583685,-4.1690865,1.2818079,-0.4527425
20336,13:45:40.525000,1.2209903999999998,8.099235499999999,2.6430849999999997,-4.1690865,1.2818079,-0.4527425
20337,13:45:40.536000,1.7405096999999998,8.424833300000001,1.2090199,-5.1281443,1.8315863999999997,-0.333013
20338,13:45:40.545000,2.4156458,7.572534599999999,0.47642559999999995,-5.1281443,1.8315863999999997,-0.333013
20339,13:45:40.554000,3.2440037999999998,5.295746299999999,2.475498,-5.6681485,2.2775176,-0.2487137
20340,13:45:40.564000,4.5416055,2.7220902000000002,3.3301911,-5.9259334,2.5609585999999998,0.015179900000000001
20341,13:45:40.573000,6.246203400000001,-0.3495384,0.48839620000000006,-6.6858492,3.2292447,1.0536499
20342,13:45:40.586000,6.4353375,-1.4484297,-1.6615044999999997,-6.6980667,4.2151804,1.8477740000000002
20343,13:45:40.593000,6.152833900000001,-2.9303767999999994,-0.2992623,-6.6980667,4.2151804,1.8477740000000002
20344,13:45:40.604000,2.592809,-3.8497107,1.2162021,-4.7396345,6.3080029,2.728641
20345,13:45:40.613000,-3.7228234,-3.6581831,0.9720040999999999,-4.7396345,6.3080029,2.728641
20346,13:45:40.622000,-8.9180183,-0.34714429999999996,0.9313045,-3.0622001,6.957963,4.147069
20347,13:45:40.635000,-8.7360659,1.3766067,-1.2569019,-2.2839584,5.6739254,3.5679691
20348,13:45:40.642000,-5.669226200000001,2.039772,-4.4027476,-2.2839584,5.6739254,3.5679691
20349,13:45:40.651000,-3.8281641000000004,5.726684099999999,-1.5896816,-1.0463464,1.9659765,2.2741575000000003
20350,13:45:40.661000,-6.1983213,6.0498877,1.3191483999999998,-1.0463464,1.9659765,2.2741575000000003
20351,13:45:40.671000,-5.9517293,4.0986972,6.4927959,-0.16425770000000003,1.498054,1.2662308
20352,13:45:40.683000,-1.9655551,1.5130703,8.4224386,0.4001813,1.0594531999999999,0.1898872
20353,13:45:40.690000,0.9049693000000001,0.34714429999999996,9.7798929,0.5700017,0.12360850000000001,-0.4270862
20354,13:45:40.701000,1.6615044999999997,0.6368303000000001,11.5012503,1.1723143,-0.5739989999999999,-0.7129709
20355,13:45:40.709000,0.9672159,4.213614,12.983198199999999,1.1723143,-0.5739989999999999,-0.7129709
20356,13:45:40.719000,0.1316754,8.6905785,11.8938828,1.8357133999999997,-0.2966664,-0.6433324
20357,13:45:40.729000,1.0438271000000001,13.196271900000001,10.522064199999999,2.3463962000000005,0.0417526,-0.5810241
20358,13:45:40.738000,2.8202484,13.383011800000002,9.1358814,2.3696091,0.0918435,-0.49550299999999997
20359,13:45:40.750000,0.8283582,6.4042139,6.8447285,1.4765248,0.2518901,0.31450359999999994
20360,13:45:40.758000,-2.0014665000000003,2.4252219,4.2279787,1.4765248,0.2518901,0.31450359999999994
20361,13:45:40.767000,-2.9710765,1.3957596,3.0237467000000002,1.7086535,0.5878656999999999,0.9253681999999999
20362,13:45:40.777000,-3.0620522,1.3957596,2.2408764,1.7086535,0.5878656999999999,0.9253681999999999
20363,13:45:40.797000,-1.4197004999999998,3.4259553,1.5992579,2.4905603,0.39483240000000003,0.9730156999999999
20364,13:45:40.806000,-0.2489863,4.7451034000000005,1.2928133999999998,3.7074029000000004,-0.06942469999999999,1.4299426000000002
20365,13:45:40.817000,0.095764,5.3891163,0.8714519000000001,4.2449641,-0.3773006,1.9308517
20366,13:45:40.825000,0.3854499,6.2342329,0.411785,4.2449641,-0.3773006,1.9308517
20367,13:45:40.836000,0.7804762,6.4497018,-0.33756790000000003,4.22786,-0.6888416,2.2350624
20368,13:45:40.848000,0.7708998,6.3323908,-1.3383013000000001,4.22786,-0.6888416,2.2350624
20369,13:45:40.854000,0.9815805000000001,5.776960400000001,-2.2935464,4.1069083,-0.8488882,2.2326188
20370,13:45:40.866000,1.5058881000000002,5.4346042,-3.1410575,3.9431964999999995,-1.2312893999999999,2.1055589
20371,13:45:40.875000,2.7627900000000003,5.1114011,-3.4020143,3.9431964999999995,-1.2312893999999999,2.1055589
20372,13:45:40.884000,3.6055129,5.14013,-3.7371883,3.9163187000000006,-1.5098438,2.0078206
20373,13:45:40.894000,3.809011,5.5231862000000005,-4.2160082,3.9163187000000006,-1.5098438,2.0078206
20374,13:45:40.902000,3.8640754,5.3939047,-4.3955655,3.8442366000000003,-1.4402051000000002,2.0334768
20375,13:45:40.915000,3.6414242,4.7881975,-4.6948276,3.5632388999999995,-1.2618327,2.015151
20376,13:45:40.922000,3.4977782,4.383595,-4.723557,3.5632388999999995,-1.2618327,2.015151
20377,13:45:40.935000,3.8640754,4.752286,-4.3812003,3.390975,-1.2899325000000001,1.9992685000000001
20378,13:45:40.942000,3.7635233,6.1863508000000005,-3.7300057,3.390975,-1.2899325000000001,1.9992685000000001
20379,13:45:40.951000,3.7683115,8.453562699999999,-3.1314812,3.4826045,-1.3620145000000001,1.9797208
20380,13:45:40.964000,4.603851799999999,10.167736999999999,-3.0644464,3.7086246,-1.4023316000000001,1.9357386000000003
20381,13:45:40.970000,5.5638857,11.3671808,-4.8408675,4.0262742,-1.5489389999999998,1.8893129000000002
20382,13:45:40.985000,7.060196899999999,11.824454300000001,-6.9548569,5.0195403,-1.9728792000000002,2.0640202000000003
20383,13:45:40.991000,8.8557711,12.3487606,-9.2914972,5.0195403,-1.9728792000000002,2.0640202000000003
20384,13:45:41,10.021697,9.796651800000001,-11.146924,5.707374099999999,-2.2575421,2.3584568999999997
20385,13:45:41.010000,8.7145185,4.3788066,-15.0684576,6.069006,-2.4383583,2.8630311
20386,13:45:41.019000,11.278598800000001,3.5624189,-16.938247699999998,6.089775599999999,-2.5336529999999997,3.9088316
20387,13:45:41.032000,14.285587300000001,4.4219003,-16.5623741,6.279143299999999,-2.7401254,3.9198272000000003
20388,13:45:41.038000,13.500323300000002,4.8480501,-16.612651800000002,6.279143299999999,-2.7401254,3.9198272000000003
20389,13:45:41.049000,12.1811743,4.1705198,-16.8281193,5.7293652999999996,-1.829937,3.8147585
20390,13:45:41.058000,12.358338400000001,3.7683115,-17.2423,5.7293652999999996,-1.829937,3.8147585
20391,13:45:41.067000,12.6647816,4.369229799999999,-17.1896305,5.1759219000000005,-1.5562694,3.6669292
20392,13:45:41.080000,12.837157199999998,6.3874555,-17.4553738,4.3842411,-1.0297041,3.2466543
20393,13:45:41.086000,12.937709800000002,8.7408552,-17.280603399999997,4.3842411,-1.0297041,3.2466543
20394,13:45:41.100000,13.423711800000001,9.7439823,-18.128116600000002,3.5021522000000003,-0.43960879999999997,2.7213106
20395,13:45:41.107000,13.564964300000002,11.2163534,-17.9892578,2.8350880000000003,-0.2453538,2.4635257999999998
20396,13:45:41.116000,14.843412400000002,11.3097219,-20.069730800000002,1.9884294999999998,-0.06942469999999999,2.0811243000000004
20397,13:45:41.126000,12.8922224,8.580450099999998,-20.7927475,0.9817245000000001,0.11872160000000001,1.7940179
20398,13:45:41.135000,11.3192987,5.2191353,-20.2061939,0.20836970000000002,0.7075952,1.4018428
20399,13:45:41.144000,11.8292418,7.4049473,-17.4170685,0.20836970000000002,0.7075952,1.4018428
20400,13:45:41.153000,10.663315800000001,6.866274799999999,-14.836230300000002,-0.22778769999999998,1.0081406,0.7225611999999999
20401,13:45:41.165000,8.0130482,5.9541235,-12.8994036,-1.233271,1.6190053999999998,-0.5199376
20402,13:45:41.174000,8.937171000000001,6.856699000000001,-12.770122500000001,-1.233271,1.6190053999999998,-0.5199376
20403,13:45:41.184000,10.7758379,6.085799199999999,-13.227395999999999,-1.7635016,1.6776483,-1.0819331
20404,13:45:41.197000,10.869208300000002,3.4139847999999997,-13.416528699999999,-2.7567677,1.1425309,-1.709902
20405,13:45:41.202000,10.409541099999998,2.2193296,-13.438076,-2.7567677,1.1425309,-1.709902
20406,13:45:41.216000,10.945818899999999,1.9416142,-13.4620171,-3.2039206,1.182848,-2.2682322999999998
20407,13:45:41.223000,11.5994081,1.5298291000000002,-12.841945599999999,-3.2039206,1.182848,-2.2682322999999998
20408,13:45:41.232000,11.939370199999999,1.5681346999999999,-12.41819,-3.3395326,1.1278701,-2.4979177000000004
20409,13:45:41.245000,12.109351199999999,1.7237511000000003,-11.869941699999998,-3.4665926,1.1706306999999998,-2.6604075000000003
20410,13:45:41.251000,12.0638638,1.7907859,-11.369574499999999,-3.5570004,1.2842514999999999,-2.7789154
20411,13:45:41.264000,11.7741776,2.183418,-10.6561337,-3.6632910000000005,1.6373312,-2.835115
20412,13:45:41.271000,11.1301651,2.7388489,-9.6697655,-3.6632910000000005,1.6373312,-2.835115
20413,13:45:41.281000,10.1174612,2.8106720000000003,-8.9275942,-3.6938341,1.8438033999999999,-2.7434852000000003
20414,13:45:41.291000,8.884499499999999,2.7843367999999997,-8.3290691,-3.7255991,2.0869277,-2.6005428
20415,13:45:41.299000,7.220602,2.6598437,-7.4145240999999995,-3.7268207,2.3105042,-2.4453833
20416,13:45:41.311000,5.5878267,2.7987015,-6.3587264999999995,-3.4519317000000003,2.6696925,-2.1179597
20417,13:45:41.319000,4.208825599999999,3.4283495000000004,-5.0563364,-3.4519317000000003,2.6696925,-2.1179597
20418,13:45:41.329000,2.9160123,4.1992487999999994,-3.4953842000000006,-2.7628763,2.7234488,-1.9628
20419,13:45:41.348000,0.5243076,5.875118700000001,-0.5530368,-2.7628763,2.7234488,-1.9628
20420,13:45:41.361000,-0.1580105,6.4640665,0.4716375,-2.1837766,2.5096458999999998,-1.9750173999999998
20421,13:45:41.368000,-0.9360925999999999,6.3922434,1.2401432,-2.0432777,2.2640784,-2.0238867
20422,13:45:41.380000,-1.4484297,6.2246566,1.7093865000000001,-1.9284351000000002,1.6263356000000002,-2.0544298
20423,13:45:41.388000,-1.5394055,6.466460700000001,2.3653696,-1.9284351000000002,1.6263356000000002,-2.0544298
20424,13:45:41.397000,-1.6615044999999997,6.516737,2.7268784,-1.7757188999999998,1.2219434,-2.0568733
20425,13:45:41.407000,-1.4005477,7.0769558,3.0548699,-1.563138,0.8199943000000001,-2.0434343999999998
20426,13:45:41.416000,-0.4836079000000001,7.7257565999999995,3.1314812,-1.2931358,0.4241539000000001,-2.0214431
20427,13:45:41.427000,1.1755025,9.1598225,3.1338751,-0.7348053000000001,-0.3198793,-1.9847912
20428,13:45:41.436000,2.5209861,10.105490699999999,2.9279827999999997,-0.7348053000000001,-0.3198793,-1.9847912
20429,13:45:41.447000,2.7508194,9.715252900000001,2.1738417,-0.6114107,-0.6790676999999999,-1.8552879
20430,13:45:41.456000,3.3541322,8.8054953,1.4412475,-0.6114107,-0.6790676999999999,-1.8552879
20431,13:45:41.465000,4.137002900000001,8.4320164,1.0031273,-0.6443974,-0.7364890000000001,-1.8308533
20432,13:45:41.477000,4.2231898,8.6091785,0.6009188,-0.5368853,-0.7511498000000001,-1.9212613
20433,13:45:41.484000,4.3237424,8.688183800000001,0.21068070000000003,-0.5368853,-0.7511498000000001,-1.9212613
20434,13:45:41.496000,4.3261366,8.9180183,0.1556164,-0.41715569999999996,-0.5666686,-2.0739775000000003
20435,13:45:41.504000,3.9837801,9.3728971,-0.1101285,-0.41715569999999996,-0.5666686,-2.0739775000000003
20436,13:45:41.514000,3.4738371,9.4973898,-0.43333190000000005,-0.4122688,-0.379744,-2.2303588
20437,13:45:41.526000,3.1865456,9.3082561,-0.557825,-0.4122688,-0.379744,-2.2303588
20438,13:45:41.533000,2.7173021,9.4519024,-0.7685057,-0.4574728,-0.3638616,-2.319545
20439,13:45:41.546000,2.3342462000000004,9.7176466,-0.8906046999999999,-0.5051203,-0.39318309999999995,-2.4661527000000003
20440,13:45:41.552000,2.0756836,9.8397465,-1.0294625,-0.5051203,-0.39318309999999995,-2.4661527000000003
20441,13:45:41.562000,1.989496,10.0264864,-1.139591,-0.5356635000000001,-0.4310567,-2.5125782
20442,13:45:41.572000,1.9128848000000003,10.3520832,-1.1180441,-0.5808675,-0.4823693,-2.5296826
20443,13:45:41.581000,1.6806574,10.3568707,-1.3502717,-0.6321800999999999,-0.515356,-2.5235738999999997
20444,13:45:41.593000,1.7476921000000003,10.402358999999999,-1.5154645,-0.7714573,-0.5177995,-2.4502702000000003
20445,13:45:41.600000,1.817121,10.361659,-1.5848933,-0.7714573,-0.5177995,-2.4502702000000003
20446,13:45:41.610000,1.6303812,10.3664484,-1.5920756,-0.8936303,-0.4958083,-2.3012192000000002
20447,13:45:41.620000,1.3766067,10.5412169,-1.5705287,-0.8936303,-0.4958083,-2.3012192000000002
20448,13:45:41.630000,1.1611378,10.8285093,-1.4053360000000001,-0.9498298000000001,-0.443274,-2.1863766
20449,13:45:41.643000,0.9025753000000001,10.8428726,-1.2449313,-1.1013242,-0.35775290000000004,-1.9139308999999998
20450,13:45:41.649000,0.5003666,10.7231684,-1.2832369,-1.1013242,-0.35775290000000004,-1.9139308999999998
20451,13:45:41.661000,0.2633509,10.572339999999999,-1.3550598999999999,-1.1978408999999999,-0.3039968,-1.7636581999999998
20452,13:45:41.669000,0.30165640000000005,10.443059,-1.3287247,-1.2796967,-0.26245799999999997,-1.6048334
20453,13:45:41.678000,0.14604,10.3472948,-1.2138082000000001,-1.3407832,-0.2429103,-1.4521171999999998
20454,13:45:41.687000,-0.12449310000000001,10.5388231,-1.0725563,-1.3847655,-0.23191479999999998,-1.2908488999999999
20455,13:45:41.696000,-0.2058925,10.6896505,-0.8594815,-1.4177521,-0.20870189999999997,-1.1014808
20456,13:45:41.708000,-0.15082820000000002,10.6896505,-0.7661116,-1.4959428,-0.19770629999999997,-0.7190795999999999
20457,13:45:41.717000,-0.014364600000000002,10.522064199999999,-0.5602191,-1.4959428,-0.19770629999999997,-0.7190795999999999
20458,13:45:41.727000,-0.07661119999999999,10.2874422,-0.4093909,-1.5790205,-0.1109636,-0.3232392
20459,13:45:41.736000,-0.16758689999999998,9.8421402,-0.3184151,-1.5790205,-0.1109636,-0.3232392
20460,13:45:41.746000,0.0167587,9.5141478,-0.12928130000000002,-1.5863508,0.008765899999999998,0.05061
20461,13:45:41.758000,0.2082866,9.6793413,0.004788199999999999,-1.5374816999999998,0.05519169999999999,0.22776079999999999
20462,13:45:41.765000,1.1707143,9.9786043,1.5226468,-1.5374816999999998,0.05519169999999999,0.22776079999999999
20463,13:45:41.777000,-0.1723751,10.040849699999999,0.48600200000000005,-1.4898341999999998,0.29709409999999997,0.628488
20464,13:45:41.784000,-0.08379349999999999,10.170130699999998,0.6511949,-1.4898341999999998,0.29709409999999997,0.628488
20465,13:45:41.793000,0.3998145,9.9283276,0.8163876999999999,-1.5044948999999999,0.38750209999999996,0.7750954999999999
20466,13:45:41.803000,0.9504572,9.3968382,1.067768,-1.5093819,0.43392780000000003,0.8679469999999999
20467,13:45:41.813000,1.1419852,8.810282699999998,1.0988913999999999,-1.499608,0.47668829999999995,0.9143726999999999
20468,13:45:41.827000,1.1060736,8.3649807,1.4987059,-1.3383398000000002,0.730808,1.0328805
20469,13:45:41.833000,0.7637175,8.3410397,1.8578206000000002,-1.3383398000000002,0.730808,1.0328805
20470,13:45:41.843000,0.45727290000000004,8.467927,2.2025707000000003,-1.1599673000000001,0.9104021999999999,1.0768628
20471,13:45:41.853000,0.2825037,8.6450911,2.7580017999999997,-0.9547167,1.0618968,1.1135146999999999
20472,13:45:41.862000,-0.24419810000000003,8.8940773,2.9543178,-0.5136724,1.2219434,1.139171
20473,13:45:41.877000,-0.8977870000000001,8.7863417,3.0381112,-0.2998697,1.2524865,1.1318406
20474,13:45:41.894000,-2.305517,8.793524699999999,2.9495296000000004,0.0752012,0.8603113000000001,1.2772264
20475,13:45:41.901000,-2.4276164000000002,8.6786079,2.8178542,0.0752012,0.8603113000000001,1.2772264
20476,13:45:41.910000,-2.5592916,8.7312784,1.8865498,0.22058699999999998,0.41804529999999995,1.3578606000000002
20477,13:45:41.923000,-3.2176687999999998,8.961112,1.4795530000000001,0.3977378,-0.0669813,1.4177253
20478,13:45:41.930000,-3.8066169999999997,9.150244699999998,0.7900524999999999,0.6958398,-0.5471209,1.4995812
20479,13:45:41.943000,-3.8185875,8.3506165,0.1484341,0.9682854,-1.9594401999999997,1.0011155999999999
20480,13:45:41.950000,-3.2918858999999996,6.782482099999999,-0.28010959999999996,0.9682854,-1.9594401999999997,1.0011155999999999
20481,13:45:41.959000,-3.4283495000000004,5.5207915000000005,-0.7613234,1.0195981,-2.9197197,0.39880290000000007
20482,13:45:41.969000,-3.5121427000000005,4.3333187,0.2992623,1.2724961000000001,-3.7614913,0.028618900000000003
20483,13:45:41.978000,-3.8137991,3.0405054,0.0694289,1.6585625,-4.649688200000001,0.0212885
20484,13:45:41.990000,-4.318954,2.2887584999999997,-0.2130748,2.6994759999999998,-5.8091097000000005,0.1214703
20485,13:45:41.998000,-4.3859892,2.056531,-0.28968590000000005,2.6994759999999998,-5.8091097000000005,0.1214703
20486,13:45:42.008000,-2.6718142000000005,2.5664737,-4.237555,3.4435093,-6.9172182,-0.085002
20487,13:45:42.017000,0.2920801,4.1298203,-4.3859892,3.4435093,-6.9172182,-0.085002
20488,13:45:42.027000,5.6357083,5.573462,2.3988869,3.7721546000000004,-8.5018015,-0.4246427
20489,13:45:42.039000,21.1566505,6.6508064,4.508088099999999,3.2797976,-7.6331515,-0.7141926
20490,13:45:42.046000,13.8881674,3.3732852999999996,-0.6176775,3.2797976,-7.6331515,-0.7141926
20491,13:45:42.059000,-0.14604,4.1824902999999996,1.8961263,2.3390657999999998,-1.8360455000000002,-0.8278135
20492,13:45:42.066000,-2.4611335,2.8346131000000003,4.685251200000001,2.3390657999999998,-1.8360455000000002,-0.8278135
20493,13:45:42.076000,1.8697912,1.9440081000000002,3.4068023999999997,2.4490216,-1.2545023000000002,-0.7044188
20494,13:45:42.084000,4.0149035,2.4802864,0.265745,2.3317354,-1.6711121,-1.0880418
20495,13:45:42.093000,2.863342,4.0747561,-1.9942843000000001,2.049516,-1.3815621999999999,-0.3684432
20496,13:45:42.104000,1.9918901000000002,6.7729053,-2.813066,2.049516,-1.3815621999999999,-0.3684432
20497,13:45:42.113000,1.4843413,11.106224099999999,-2.2408764,2.2291102,-0.7816930000000001,-0.3317913
20498,13:45:42.123000,1.4651883999999997,15.4898186,-1.2162021,2.7385714,0.22012510000000002,-0.08011510000000001
20499,13:45:42.133000,0.7302001,18.561447100000002,-2.2049651000000003,2.7385714,0.22012510000000002,-0.08011510000000001
20500,13:45:42.142000,1.3359071000000002,21.776722,-0.9911568999999999,2.6102898,0.6404001,-0.047128300000000005
20501,13:45:42.155000,1.2233844999999999,22.2866669,0.8666638000000001,1.8845825,1.3209033000000001,0.5283062
20502,13:45:42.161000,0.6176775,18.9804134,1.9033084999999998,1.8845825,1.3209033000000001,0.5283062
20503,13:45:42.175000,0.8355404000000001,15.101975400000002,1.309572,0.3476469,1.7680563999999999,0.49898469999999995
20504,13:45:42.181000,1.64714,12.339184800000002,0.316021,0.031219,1.5554755,0.40246809999999994
20505,13:45:42.190000,1.6375635,11.2905703,-0.0023940999999999997,0.031219,1.5554755,0.40246809999999994
20506,13:45:42.200000,1.1515615,11.1780472,-0.122099,0.043436300000000004,0.8151073,0.1324659
20507,13:45:42.209000,0.9073634,10.3903894,-0.004788199999999999,0.043436300000000004,0.8151073,0.1324659
20508,13:45:42.219000,0.6416184,9.9594507,0.14125179999999998,-0.1679229,0.42904079999999994,-0.039798
20509,13:45:42.229000,0.3806617,9.6027298,0.2609568,-0.4012732,0.12849539999999998,-0.1644144
20510,13:45:42.238000,0.6583770999999999,9.8325644,0.3950263,-0.618741,-0.11829389999999998,-0.2487137
20511,13:45:42.248000,1.1228323,10.455028500000001,0.5769778,-0.8081092,-0.3406487,-0.27681350000000005
20512,13:45:42.257000,1.5346173,11.103830300000002,0.799629,-0.9522732,-0.5410123,-0.2804787
20513,13:45:42.268000,1.8123327,11.5850439,0.9887628,-1.0585636999999999,-0.6802894,-0.2804787
20514,13:45:42.277000,2.1115949,11.9417648,1.0103096999999999,-1.1538587,-0.7572584,-0.27070479999999997
20515,13:45:42.286000,2.4036752999999997,12.4636784,1.2090199,-1.2515969,-0.7731409,-0.27559179999999994
20516,13:45:42.297000,2.6430849999999997,13.3351297,1.4747648000000002,-1.337118,-0.7108327,-0.2865873
20517,13:45:42.308000,2.6766026000000003,14.141941099999999,1.7117807,-1.4287478,-0.5593383000000001,-0.2939177
20518,13:45:42.320000,2.5688679,15.216892199999998,1.6830512999999998,-1.7476192,-0.0706465,-0.3171305
20519,13:45:42.327000,2.6119618,15.7172585,1.7500861,-1.7476192,-0.0706465,-0.3171305
20520,13:45:42.338000,2.2169354,16.4259129,1.3239366000000001,-1.9821911,0.20668609999999998,-0.3427869
20521,13:45:42.346000,1.6902337,16.5120983,0.23462170000000002,-2.3108362999999996,0.509675,-0.3635563
20522,13:45:42.356000,1.2760546,16.6365929,0.0359115,-2.6529207,0.8187726,-0.40998199999999996
20523,13:45:42.369000,1.0366447,15.7268353,0.5290958,-3.0988519,1.2121693999999998,-0.4490773
20524,13:45:42.375000,0.0885817,13.7684622,1.3550598999999999,-3.6974992999999996,1.6800918999999999,-0.43319480000000005
20525,13:45:42.399000,-0.7589293,11.2450819,2.9208004,-5.2332129,2.8004177,-0.5394853000000001
20526,13:45:42.404000,-0.7708998,9.0951815,6.248597599999999,-5.7206831,2.6415927000000003,-0.5956849
20527,13:45:42.407000,-2.1163833,6.646017999999999,5.8607535,-5.983355,2.1101406000000003,-0.6836494000000001
20528,13:45:42.419000,-3.3541322,5.5279741,4.1058793,-5.9247117,1.5078280000000002,-0.5626982
20529,13:45:42.438000,-2.8441892,4.0843324999999995,2.4659216,-5.2148871,0.7002648,-0.0165851
20530,13:45:42.442000,-2.5090156,3.8401343999999997,3.1123283,-5.2148871,0.7002648,-0.0165851
20531,13:45:42.451000,-2.8753126,3.3900437000000005,2.9806529999999998,-4.3767805,0.6550608,0.8557296999999998
20532,13:45:42.462000,-3.2080922000000003,2.3940987999999996,2.2145412,-4.3767805,0.6550608,0.8557296999999998
20533,13:45:42.472000,-3.4211669000000002,0.82357,1.4580061000000002,-4.3987718000000005,0.5023446,1.3554171
20534,13:45:42.482000,-3.1171165000000003,-1.067768,2.6718142000000005,-4.474518799999999,0.5060098,1.8636564999999998
20535,13:45:42.491000,-0.7876585,-3.5839657999999996,2.6119618,-4.5038404000000005,0.3826151,2.1898582
20536,13:45:42.503000,3.0165646,-6.476037,4.522452400000001,-3.6193087,-0.0828638,1.8489958
20537,13:45:42.511000,5.7051377,-6.808816900000001,3.2894917,-3.6193087,-0.0828638,1.8489958
20538,13:45:42.520000,5.022819,-4.6684923,2.327064,-2.8728317999999997,0.19202539999999998,2.2240667000000003
20539,13:45:42.531000,6.0690403,-1.5298291000000002,2.9184062,-1.983413,1.2304955,2.6455634
20540,13:45:42.540000,5.5710678,3.2799153,2.130748,-0.7189229,1.750952,2.3877785
20541,13:45:42.552000,4.8073505999999995,7.5102877999999995,3.4020143,0.7483741,2.3996904,1.7549226000000002
20542,13:45:42.560000,4.6206107,9.9929676,5.2765937,0.7483741,2.3996904,1.7549226000000002
20543,13:45:42.569000,5.3364458,11.223534599999999,9.250798199999998,0.699505,2.6330407000000005,1.5594458999999998
20544,13:45:42.579000,5.018031099999999,9.7248287,9.238826800000002,0.47470680000000004,2.7723179,1.4934725
20545,13:45:42.589000,3.2440037999999998,6.3683023,8.0130482,0.0287755,3.1571627,1.5875456000000001
20546,13:45:42.601000,0.0359115,3.610301,1.8721851999999999,-1.499608,4.1907458,1.7158272
20547,13:45:42.608000,-1.9631610000000002,4.0316625,3.4139847999999997,-1.499608,4.1907458,1.7158272
20548,13:45:42.620000,-6.0115819,6.2509917999999995,3.0812049,-0.9253953000000001,2.8639476000000004,-0.2865873
20549,13:45:42.628000,-8.1351471,5.33884,1.2425373,-0.9253953000000001,2.8639476000000004,-0.2865873
20550,13:45:42.637000,-9.657794,2.8872831000000003,3.7730997000000004,-0.6761623999999999,2.1296882999999998,-1.5132036
20551,13:45:42.647000,-7.7903975999999995,-2.2504527999999997,4.7570739,-0.5943065,1.4088678,-1.6402636000000002
20552,13:45:42.657000,-3.2751269,-1.2856309,6.1001635,-0.6798276,0.6391783000000001,-0.8608002
20553,13:45:42.668000,-0.2920801,4.0627856,9.1406689,-0.0762932,-0.7890234,-0.11676689999999999
20554,13:45:42.675000,-0.0167587,8.695366900000002,11.1397409,-0.0762932,-0.7890234,-0.11676689999999999
20555,13:45:42.686000,-1.1228323,9.6362467,12.1261101,0.7288265,-0.3003316,-0.3354565
20556,13:45:42.696000,-1.8243033,6.4305490999999995,11.697566,0.7288265,-0.3003316,-0.3354565
20557,13:45:42.705000,-2.353399,2.863342,10.598674800000001,0.4905892,-0.16105450000000002,-0.351339
20558,13:45:42.718000,-2.9591060000000002,0.1556164,9.868475,0.7544827,-0.0853072,-0.1240973
20559,13:45:42.725000,-4.0077214,-0.6104951999999999,8.2237291,0.7544827,-0.0853072,-0.1240973
20560,13:45:42.734000,-4.508088099999999,-0.1580105,7.6587219,1.3714561,-0.1011897,0.3022863
20561,13:45:42.744000,-3.7850699,1.3526658,7.292425200000001,2.1509194,-0.20870189999999997,0.8740556
20562,13:45:42.754000,-1.5872875,2.0637131,6.7274175000000005,3.5522432,-0.8330056999999998,1.7048317
20563,13:45:42.763000,-1.9152790000000002,2.9734707,4.781014900000001,3.5522432,-0.8330056999999998,1.7048317
20564,13:45:42.773000,-0.8522992,3.2655509,3.2152746,4.029939700000001,-1.0235955,2.0444725
20565,13:45:42.786000,0.533884,3.2056982999999994,1.6878396,4.6591301,-1.3180323,2.4342041
20566,13:45:42.792000,1.1348027,3.1626046000000003,0.0167587,4.6591301,-1.3180323,2.4342041
20567,13:45:42.801000,1.3885771999999998,3.1506341,-1.721357,4.8582721,-1.3937795,2.5698161
20568,13:45:42.812000,2.1546887999999997,3.2272451,-3.0117762000000003,4.993884099999999,-1.3974447,2.6993194
20569,13:45:42.821000,2.8178542,3.3804674,-4.2830424,5.089179,-1.4524224,2.7677364
20570,13:45:42.834000,3.0644464,3.299068,-5.2837758,5.1050615,-1.5318348,2.8324881
20571,13:45:42.841000,3.1075404,3.1051458999999997,-6.3778790999999995,5.1050615,-1.5318348,2.8324881
20572,13:45:42.850000,3.7323998999999994,3.1242987999999996,-6.9596448,4.8924809,-1.5941432,2.8679183
20573,13:45:42.860000,4.139396700000001,3.416379,-7.0003443,4.8924809,-1.5941432,2.8679183
20574,13:45:42.870000,4.137002900000001,3.6653652,-7.0123148,4.740986299999999,-1.6601164000000002,2.8618095
20575,13:45:42.882000,4.201643499999999,3.9239278,-6.9548569,4.2535162,-1.6295733000000001,2.7750666
20576,13:45:42.889000,4.6780691,4.5679407,-6.385061299999999,4.2535162,-1.6295733000000001,2.7750666
20577,13:45:42.902000,5.0730948,6.2964797,-5.4705157,3.8198019999999997,-1.6564511999999998,2.542938
20578,13:45:42.909000,5.702743099999999,8.664242699999999,-4.010115600000001,3.8198019999999997,-1.6564511999999998,2.542938
20579,13:45:42.918000,6.801634299999999,10.8428726,-3.0716287999999996,3.7929239000000003,-1.6796640999999999,2.4342041
20580,13:45:42.931000,7.661116099999999,12.1524448,-4.3668360999999996,3.8833318,-1.7590766,2.3731177000000003
20581,13:45:42.937000,9.997755999999999,13.0119267,-6.4640665,4.0617046000000006,-1.8629236,2.3926654
20582,13:45:42.951000,13.347101199999999,11.994435300000001,-9.076027900000001,5.1905828000000005,-2.5324313999999997,2.6443417
20583,13:45:42.957000,14.908053400000002,8.901259399999999,-11.3911219,5.1905828000000005,-2.5324313999999997,2.6443417
20584,13:45:42.976000,9.765528699999999,0.629648,-16.5695572,5.8857465,-2.7376819,3.0414038
20585,13:45:42.985000,9.803834,-2.1690536,-17.5248013,6.4501858,-2.2978593999999997,4.1605077
20586,13:45:42.999000,10.3951769,-3.6605771000000003,-17.9820766,6.539372,-2.4689014,4.0139002999999995
20587,13:45:43.007000,10.663315800000001,-3.4235613,-16.4378815,6.4452987,-2.3870456,3.7719979
20588,13:45:43.017000,9.897204400000001,-1.4795530000000001,-15.090004,6.34023,-2.1659126,3.5985123999999997
20589,13:45:43.024000,10.5531874,2.5257742000000003,-14.060542100000001,6.34023,-2.1659126,3.5985123999999997
20590,13:45:43.033000,11.5204029,6.1480455,-11.9561291,6.0641193,-2.0144181,3.4763393
20591,13:45:43.044000,17.0459843,7.2445431,-11.7646008,5.695157099999999,-2.1402562,3.234437
20592,13:45:43.053000,28.3533115,12.5929594,-22.839702600000003,5.0500836,-2.4896708,2.9338915
20593,13:45:43.067000,7.3067894,13.3351297,-39.7396431,2.7422366,-4.3540297,3.6486031999999997
20594,13:45:43.073000,24.7406158,10.067185400000001,-35.8205032,2.7422366,-4.3540297,3.6486031999999997
20595,13:45:43.083000,8.807889,6.5909538,-21.9251556,0.6518575,-2.5861874,0.2839603
20596,13:45:43.093000,4.2686782,8.8868952,-16.9167023,0.6518575,-2.5861874,0.2839603
20597,13:45:43.102000,11.8196659,-0.3064446,-5.33884,-0.9168431,-1.079795,-3.8625894
20598,13:45:43.115000,15.1833744,-0.5937365,-3.2655509,-1.2796967,-1.2899325000000001,-3.2590551
20599,13:45:43.121000,9.3681078,1.5968639,-5.6117672999999995,-1.2796967,-1.2899325000000001,-3.2590551
20600,13:45:43.132000,3.0405054,1.6878396,-8.6546669,-1.5338165000000001,1.6092315000000001,-0.9866383
20601,13:45:43.141000,1.2329608,-0.1723751,-10.256319,-1.5338165000000001,1.6092315000000001,-0.9866383
20602,13:45:43.150000,4.5009055,-2.1115949,-10.3520832,-1.6792023,1.814482,-0.2511572
20603,13:45:43.163000,7.2756662,-1.9176731,-10.435875900000001,-1.3163486999999998,1.1156528000000001,-0.0752281
20604,13:45:43.170000,7.270877799999999,-0.10773440000000001,-11.223534599999999,-1.3163486999999998,1.1156528000000001,-0.0752281
20605,13:45:43.180000,6.6484122,2.8082778,-11.9226122,-0.6724972,1.9745286,0.1129182
20606,13:45:43.189000,6.6196828,5.2071648,-11.994435300000001,-0.6724972,1.9745286,0.1129182
20607,13:45:43.198000,7.0530152,5.7051377,-11.9010649,-0.5943065,2.2054355,0.059162099999999995
20608,13:45:43.209000,9.1358814,4.409930200000001,-11.151712400000001,-0.7494662,2.2530827999999996,-0.05690219999999999
20609,13:45:43.218000,5.5782499,4.5176644,-12.1907511,-0.9974773000000001,2.2848477000000003,-0.1216538
20610,13:45:43.230000,4.354865599999999,5.2239237,-11.8962774,-1.1172066999999999,2.432677,-0.039798
20611,13:45:43.238000,5.9972177,6.5311017,-11.640108099999999,-1.0939938999999999,2.4583334999999997,-0.0483501
20612,13:45:43.248000,8.839013099999999,7.088926299999999,-11.036794699999998,-1.2515969,1.4088678,-0.6567714
20613,13:45:43.257000,10.7590799,6.5981359,-10.818931599999999,-1.2515969,1.4088678,-0.6567714
20614,13:45:43.268000,11.673625,6.2797208,-10.4502411,-1.9247699,1.3270121000000001,-1.3922523999999998
20615,13:45:43.283000,12.607323599999999,5.8463888,-9.6961002,-2.2094327999999996,1.4430763999999998,-1.8613966
20616,13:45:43.285000,13.138814000000002,5.403481,-9.4183836,-2.5698431,1.5029411,-2.3452015
20617,13:45:43.297000,12.983198199999999,3.9694157,-10.3329296,-3.075639,1.6837571,-2.6921725
20618,13:45:43.304000,12.7796993,2.0206193999999997,-11.431821800000002,-3.075639,1.6837571,-2.6921725
20619,13:45:43.314000,12.801245699999999,0.9552454,-11.477309199999999,-3.5325657999999995,1.8535773999999998,-2.9120839
20620,13:45:43.324000,12.377491000000001,0.2058925,-11.087071400000001,-3.7353730000000005,2.0014067,-2.9878311
20621,13:45:43.335000,10.6393747,-0.4788198,-10.1342201,-3.7243774,2.1968832000000003,-3.0562479
20622,13:45:43.347000,8.4152575,-1.1060736,-8.6977606,-3.4727010999999997,2.7637658,-3.0757957
20623,13:45:43.355000,6.665171099999999,-0.8355404000000001,-6.9596448,-3.4727010999999997,2.7637658,-3.0757957
20624,13:45:43.364000,5.5902205,0.48121379999999997,-5.2598348,-2.7396634,2.8896039,-3.160095
20625,13:45:43.374000,4.675674900000001,2.7196963,-3.6222714999999996,-2.7396634,2.8896039,-3.160095
20626,13:45:43.383000,3.6414242,4.9390254,-2.4659216,-1.8856745,2.7320008,-3.0061569
20627,13:45:43.395000,2.4204338,6.8471227,-1.3885771999999998,-1.8856745,2.7320008,-3.0061569
20628,13:45:43.403000,1.3598481000000002,7.974742900000001,-0.7325941999999999,-1.6205592,2.5731759,-2.8192325
20629,13:45:43.413000,0.895393,8.5780563,0.019152799999999998,-1.3859872,2.035615,-2.5467868
20630,13:45:43.422000,0.9887628,8.8126774,0.5386721999999999,-1.3859872,2.035615,-2.5467868
20631,13:45:43.431000,0.5697955,8.6355143,0.7493529000000001,-1.3762133,1.6996396,-2.5687778
20632,13:45:43.445000,0.1053403,8.2141533,0.8451169,-1.5106037,1.2036173000000001,-2.6164252999999995
20633,13:45:43.451000,-0.44530240000000004,7.6156277999999995,0.7373824000000001,-1.5106037,1.2036173000000001,-2.6164252999999995
20634,13:45:43.462000,0.33517379999999997,7.409735700000001,0.8115995,-1.4947211999999999,0.6684998000000001,-2.5223522000000003
20635,13:45:43.471000,-0.9648218000000001,8.0585365,0.5027608,-1.4947211999999999,0.6684998000000001,-2.5223522000000003
20636,13:45:43.480000,0.0215469,9.3633204,1.0270684,-1.3591091999999998,0.4094932,-2.4514918
20637,13:45:43.499000,0.7661116,10.086338,1.4005477,-1.2137233,0.2360076,-2.3268754
20638,13:45:43.511000,1.2425373,9.9474802,1.3143603000000001,-1.1086546,-0.5397906,-2.0910816000000003
20639,13:45:43.519000,1.2712663,10.3042011,0.8475109000000001,-1.1086546,-0.5397906,-2.0910816000000003
20640,13:45:43.529000,2.5904147999999996,9.9498739,1.0174919,-0.9938120999999999,-0.6363072,-1.8919398
20641,13:45:43.539000,2.1906002,10.519669500000001,0.2944742,-0.9938120999999999,-0.6363072,-1.8919398
20642,13:45:43.547000,2.6957552000000002,10.713591599999999,-0.1149167,-0.9192866,-0.5959901999999999,-1.7942014
20643,13:45:43.560000,2.3222756,10.4143295,-0.6679536,-0.8960736999999999,-0.483591,-1.6756936000000002
20644,13:45:43.567000,2.6550555,10.265894900000001,-0.9983392,-0.8960736999999999,-0.483591,-1.6756936000000002
20645,13:45:43.578000,2.7532134,10.5460052,-1.1587437,-0.9168431,-0.4652651,-1.7208976999999999
20646,13:45:43.586000,2.8585539,10.9721546,-1.0103096999999999,-0.9192866,-0.4310567,-1.7942014
20647,13:45:43.596000,2.6789966,11.2331114,-1.2640841,-1.0512333,-0.2930012,-1.8650618000000003
20648,13:45:43.610000,2.8322186,11.3025398,-1.2592959,-1.1892886999999999,-0.2209192,-1.9004918000000002
20649,13:45:43.615000,2.6095676,11.015248300000001,-1.3287247,-1.1892886999999999,-0.2209192,-1.9004918000000002
20650,13:45:43.627000,1.9871020000000001,10.507699,-1.7093865000000001,-1.5435903,-0.0535423,-1.9554697
20651,13:45:43.635000,1.5465877000000001,10.048031800000002,-1.7117807,-1.5435903,-0.0535423,-1.9554697
20652,13:45:43.645000,1.4699767,9.866081199999998,-1.6112285,-1.7354019,-0.08164199999999999,-1.9640218
20653,13:45:43.655000,1.3574538999999999,10.0193033,-1.4939176,-1.7354019,-0.08164199999999999,-1.9640218
20654,13:45:43.664000,1.4891294,10.4215117,-1.0438271000000001,-1.7696102999999999,-0.14639370000000002,-1.9285916
20655,13:45:43.676000,1.3359071000000002,10.5292463,-0.8522992,-1.8575747,-0.2636797,-1.8051970000000002
20656,13:45:43.684000,0.9672159,10.3113832,-0.8187817,-1.8575747,-0.2636797,-1.8051970000000002
20657,13:45:43.695000,0.7158355,10.0815496,-0.7325941999999999,-1.9284351000000002,-0.2661232,-1.6927979
20658,13:45:43.703000,0.7613234,9.813410800000002,-0.5410663,-1.9773042,-0.27834050000000005,-1.5608511
20659,13:45:43.712000,0.6727418000000001,9.7774992,-0.35672070000000006,-1.9785258999999997,-0.32843140000000004,-1.2688576999999999
20660,13:45:43.726000,0.5721896,9.7607412,-0.21068070000000003,-1.9565348999999999,-0.307662,-1.0978156000000001
20661,13:45:43.731000,0.4548787,9.4973898,0.0406997,-1.9565348999999999,-0.307662,-1.0978156000000001
20662,13:45:43.743000,0.22265120000000002,9.341773,0.33756790000000003,-1.910109,-0.25024070000000004,-0.771614
20663,13:45:43.752000,-0.0502761,9.0257521,0.5865541999999999,-1.910109,-0.25024070000000004,-0.771614
20664,13:45:43.761000,-0.35672070000000006,8.848588900000001,0.8475109000000001,-1.856353,-0.20625839999999998,-0.6201194999999999
20665,13:45:43.771000,-0.4189673,8.7169142,1.0749503,-1.7757188999999998,-0.1696066,-0.4722902
20666,13:45:43.780000,-0.3495384,8.7336721,1.3526658,-1.5460337,-0.1744935,-0.21450529999999998
20667,13:45:43.793000,-0.3758735,8.8174658,1.503494,-1.4128653,-0.21236710000000003,-0.0886672
20668,13:45:43.799000,-0.15082820000000002,8.7169142,1.7524803,-1.4128653,-0.21236710000000003,-0.0886672
20669,13:45:43.810000,-0.2394099,8.2787933,1.9655551,-1.161189,-0.3736354,0.1837785
20670,13:45:43.820000,-0.411785,7.9651666,2.2408764,-1.161189,-0.3736354,0.1837785
20671,13:45:43.829000,-0.8570873999999999,7.9029198,2.2408764,-1.0573419,-0.5556731,0.40002459999999995
20672,13:45:43.841000,-1.8650029,8.1734533,1.7333275000000001,-0.7983353,-1.2227373,0.8679469999999999
20673,13:45:43.848000,-2.7173021,8.6522732,1.1348027,-0.7983353,-1.2227373,0.8679469999999999
20674,13:45:43.859000,-2.956712,8.9850531,0.2944742,-0.31819559999999997,-2.5788572,0.6883528
20675,13:45:43.868000,-2.6071734,9.0592699,-0.007182300000000001,-0.31819559999999997,-2.5788572,0.6883528
20676,13:45:43.878000,-1.1084677,8.6833963,0.387844,0.1741613,-4.582493299999999,-0.6262281999999999
20677,13:45:43.887000,0.17716329999999997,7.6922393,0.42854369999999997,0.1741613,-4.582493299999999,-0.6262281999999999
20678,13:45:43.897000,0.1915279,7.1894784,0.33517379999999997,0.34276,-5.5012336,-1.3812568
20679,13:45:43.908000,-0.3327797,6.753752700000001,1.5082823,1.1173364,-6.3918743,-2.130177
20680,13:45:43.917000,-1.4053360000000001,6.811211099999999,1.9703432,1.6475669999999998,-6.261149400000001,-2.319545
20681,13:45:43.927000,-1.9057026000000001,5.934970900000001,3.952657,1.8931346000000002,-6.1731849,-2.4062879
20682,13:45:43.936000,-1.1204382,6.9237337,2.7651839,1.8931346000000002,-6.1731849,-2.4062879
20683,13:45:43.944000,0.9648218000000001,8.9419594,2.4395863999999996,1.990873,-5.986260400000001,-2.1582767999999994
20684,13:45:43.958000,3.5432663,11.7358723,3.8616812000000005,1.8027266,-5.8995175,-1.7758754
20685,13:45:43.964000,3.8449225,12.750969900000001,3.5217192,1.8027266,-5.8995175,-1.7758754
20686,13:45:43.974000,2.6909671000000004,9.9546633,4.220796099999999,1.7734051,-5.1249409,-1.5461904
20687,13:45:43.984000,2.0780778000000004,6.2438097,2.956712,1.5889239,-4.1170144,-1.1088111
20688,13:45:43.993000,2.5425327,3.0476878,2.4204338,1.0122677,-3.4291809,-0.8180397
20689,13:45:44.006000,3.8353462,0.6081011,1.5346173,0.6420836999999999,-3.0064623,-0.7569531999999999
20690,13:45:44.013000,4.6373695999999995,-1.1276205,0.82357,0.7728088000000001,-2.6081786,-0.7386273
20691,13:45:44.027000,4.479359099999999,-1.8147268,0.14125179999999998,1.2737178,-1.1995243999999998,-0.7948268
20692,13:45:44.032000,3.8497107,-1.0007333,0.34714429999999996,1.2737178,-1.1995243999999998,-0.7948268
20693,13:45:44.041000,3.4618669,0.3208092,0.8499051,1.7025448,-0.4017352,-0.6323368
20694,13:45:44.051000,3.0333229999999998,1.4460356,1.0486152,2.2462144,0.2079078,-0.32446090000000005
20695,13:45:44.061000,2.2672114,2.6885729,1.3909714,2.6750414,0.5964178000000001,-0.0483501
20696,13:45:44.072000,0.8522992,3.9837801,0.8427228000000001,3.2358153,0.9189543,0.3572641
20697,13:45:44.080000,0.8714519000000001,5.7075315,0.8403287,3.2358153,0.9189543,0.3572641
20698,13:45:44.091000,0.5434604000000001,8.1183891,0.9313045,3.5730126,0.9287281999999999,0.41468540000000004
20699,13:45:44.100000,0.32559740000000004,10.9793367,1.5896816,3.5730126,0.9287281999999999,0.41468540000000004
20700,13:45:44.109000,-0.1101285,14.692584,1.6806574,3.5204782,0.7503557,0.2668561
20701,13:45:44.123000,0.9289103000000001,17.7498474,0.7038651,3.1319682999999996,0.4901273,0.226539
20702,13:45:44.129000,2.3222756,19.80159,0.9839745999999999,3.1319682999999996,0.4901273,0.226539
20703,13:45:44.141000,2.1977827999999997,20.6778297,1.1276205,1.7648529999999998,0.2335641,0.33649470000000004
20704,13:45:44.149000,1.5082823,19.9069328,1.8434560000000002,1.7648529999999998,0.2335641,0.33649470000000004
20705,13:45:44.158000,1.5681346999999999,17.469738,1.9009144,0.15827879999999997,0.2176817,0.5148672000000001
20706,13:45:44.171000,2.2456646,14.5417557,1.8051505,0.15827879999999997,0.2176817,0.5148672000000001
20707,13:45:44.177000,2.5592916,12.6432352,2.0325898999999996,-0.49045950000000005,0.0796262,0.5160889
20708,13:45:44.188000,2.8058836,11.6257439,2.5568974,-0.98526,0.008765899999999998,0.5136455
20709,13:45:44.196000,2.9136182999999996,11.015248300000001,3.3804674,-0.98526,0.008765899999999998,0.5136455
20710,13:45:44.207000,2.640691,10.301807400000001,4.0508150999999994,-0.9913687,0.1346041,0.5344148
20711,13:45:44.216000,2.4180398,9.473448800000002,4.488935,-0.9913687,0.1346041,0.5344148
20712,13:45:44.225000,2.4371924,8.72649,4.958178500000001,-1.0060294,0.1688125,0.5808406
20713,13:45:44.238000,2.5832324,8.4655333,5.286169999999999,-0.8814129999999999,0.1724777,0.5527408
20714,13:45:44.245000,2.8801007000000003,8.7480373,5.3579931,-0.8814129999999999,0.1724777,0.5527408
20715,13:45:44.256000,3.1051458999999997,8.9946289,5.367569400000001,-0.5662067,0.0759611,0.40246809999999994
20716,13:45:44.273000,3.299068,9.5309067,5.039578,-0.5662067,0.0759611,0.40246809999999994
20717,13:45:44.286000,3.5935422999999993,10.0145149,4.8145323,-0.3365216,0.008765899999999998,0.27540820000000005
20718,13:45:44.293000,3.5408720999999996,10.6824694,4.6924334000000005,-0.24122670000000002,-0.030329400000000003,0.23875639999999998
20719,13:45:44.307000,3.5743894999999997,11.187623,4.5703344,-0.1129451,-0.0058948,0.22776079999999999
20720,13:45:44.312000,3.6653652,11.561102900000002,4.3428949999999995,-0.1324928,0.0368657,0.2179869
20721,13:45:44.322000,3.6821237,12.0111933,4.1465788,-0.1740316,0.1040608,0.2192087
20722,13:45:44.331000,3.6940942000000003,12.288909,3.9335042999999996,-0.1740316,0.1040608,0.2192087
20723,13:45:44.341000,3.7347938999999997,12.205115300000001,3.8209815000000003,-0.298648,0.211573,0.2350911
20724,13:45:44.350000,3.4834137000000003,11.8603649,3.6557887000000004,-0.48312910000000003,0.35940229999999995,0.23875639999999998
20725,13:45:44.361000,3.2248509,11.2594461,3.2200627,-0.7250314999999999,0.5463269000000001,0.25097359999999996
20726,13:45:44.371000,3.0931754000000002,10.3951769,3.1434517000000004,-1.4018697,0.9385020000000001,0.2546388
20727,13:45:44.381000,2.9854412,9.4040203,2.8298247,-1.4018697,0.9385020000000001,0.2546388
20728,13:45:44.391000,2.8705244,8.3290691,2.7580017999999997,-1.8258098000000003,1.1022139,0.2118783
20729,13:45:44.400000,2.6239324,7.5007114,2.4898627,-2.2411978,1.2793646,0.1361311
20730,13:45:44.410000,2.4060693,6.801634299999999,2.8082778,-2.583282,1.4821715,0.040836199999999996
20731,13:45:44.420000,2.3390346,5.973276599999999,2.305517,-3.2833330999999997,2.0417237,-0.22672260000000002
20732,13:45:44.429000,2.667026,4.9629664,2.082866,-3.2833330999999997,2.0417237,-0.22672260000000002
20733,13:45:44.439000,3.2392156,3.9430807,0.7732939,-3.5411178999999997,2.3459343999999995,-0.3110219
20734,13:45:44.456000,3.7252178,2.9399533,0.435726,-3.7854638,3.2109187,-0.1460884
20735,13:45:44.459000,3.8377402000000003,1.6782633000000002,1.8626089,-3.7854638,3.2109187,-0.1460884
20736,13:45:44.470000,3.0357172,-0.047882,1.8147268,-3.5643307999999996,3.8095663,0.064049
20737,13:45:44.477000,1.8530324,-2.2815759,0.2729273,-3.4763663,4.383779,0.33893809999999996
20738,13:45:44.486000,0.7038651,-4.5894876,-0.0502761,-3.6632910000000005,5.0203004,0.6480357
20739,13:45:44.496000,0.193922,-5.6428905,0.13885770000000003,-3.7048297,5.5163226,0.7494392
20740,13:45:44.507000,0.4261496,-4.005327200000001,1.9224613000000002,-3.4372709,5.544422099999999,0.7628782
20741,13:45:44.520000,0.7661116,-0.8977870000000001,3.8736517,-1.4336346000000002,5.0703912,1.7720268
20742,13:45:44.526000,-0.4836079000000001,3.2942801,3.3421616999999997,-1.4336346000000002,5.0703912,1.7720268
20743,13:45:44.536000,-1.4556118999999998,6.5430722,3.2272451,-0.6199628,4.884688400000001,2.371896
20744,13:45:44.545000,-3.3756793,10.0097265,3.4977782,0.0971924,4.5010653,2.2081842000000003
20745,13:45:44.556000,-5.3555989,12.633659399999999,2.8801007000000003,0.31099499999999997,3.1009631,1.6241976
20746,13:45:44.568000,-3.1075404,12.401432000000002,0.8427228000000001,-0.10561469999999999,1.6080098,1.0719758
20747,13:45:44.575000,1.1180441,9.8565054,1.1826848,-0.10561469999999999,1.6080098,1.0719758
20748,13:45:44.586000,-0.4548787,6.0546755999999995,7.7927914000000005,-0.3853908,0.12116500000000001,0.5661798000000001
20749,13:45:44.595000,-4.9318433,5.8368125,8.269216499999999,-0.0811801,-0.2661232,-0.0605674
20750,13:45:44.604000,-5.3053231,6.140863400000001,7.881372900000001,0.48570230000000003,0.3496284,-0.4307514
20751,13:45:44.614000,-3.5504483999999996,7.5533814,7.4360704,1.0342588,-0.2441321,-0.1509753
20752,13:45:44.624000,-1.9440081000000002,8.0369892,7.665903999999999,1.1894183999999999,-0.7120544,0.0921488
20753,13:45:44.638000,-0.8163876999999999,7.0290742,6.8183932,1.309148,-0.8549968000000001,0.290069
20754,13:45:44.642000,0.095764,6.2916913,5.602191,1.309148,-0.8549968000000001,0.290069
20755,13:45:44.652000,1.2712663,5.281382099999999,3.9694157,1.6829971000000001,-0.7181630999999999,0.9326986999999999
20756,13:45:44.661000,1.503494,3.7036707000000004,2.2911525,1.6829971000000001,-0.7181630999999999,0.9326986999999999
20757,13:45:44.671000,1.2592959,1.9823137999999998,0.581766,1.9346734,-0.5214646,1.243018
20758,13:45:44.686000,1.0725563,0.9145458000000001,-0.7421706,2.781332,-0.2099236,1.8868694
20759,13:45:44.691000,0.6655594,1.3478776000000001,-1.4029418,2.781332,-0.2099236,1.8868694
20760,13:45:44.702000,0.6488007,3.3493443,-1.8721851999999999,4.0653696,-0.27345359999999996,2.3841132999999997
20761,13:45:44.711000,1.7333275000000001,5.7242899000000005,-1.9775256,4.0653696,-0.27345359999999996,2.3841132999999997
20762,13:45:44.721000,3.296674,6.8782454,-2.0708954,4.7470946,-0.7462628000000001,2.6040246
20763,13:45:44.730000,4.1489735,6.9285220999999995,-2.7340607999999995,4.7470946,-0.7462628000000001,2.6040246
20764,13:45:44.738000,4.2519193,6.5909538,-3.7228234,4.7031126,-0.8794314000000001,2.6321244
20765,13:45:44.752000,4.3788066,5.8846945999999996,-4.383595,4.5577269,-0.8647706000000001,2.6541154
20766,13:45:44.759000,4.7451034000000005,4.9390254,-5.0707011,4.3927932,-0.8268969999999999,2.6406765
20767,13:45:44.770000,4.9150844000000005,3.9574451,-5.8583593,4.0629263,-0.8036842,2.5795901000000003
20768,13:45:44.778000,4.9629664,3.0835993,-6.3587264999999995,4.0629263,-0.8036842,2.5795901000000003
20769,13:45:44.788000,4.8935379999999995,2.9040418,-6.6101065000000006,3.9529705,-0.7487063,2.5673728
20770,13:45:44.800000,5.0036664,3.2487918999999996,-6.696293799999999,3.8711144999999996,-0.6949502,2.5038428
20771,13:45:44.807000,5.1568885,4.3309245,-6.277327099999999,3.8711144999999996,-0.6949502,2.5038428
20772,13:45:44.820000,4.8504438,6.0570698,-5.719501999999999,3.9871788,-0.6937285,2.2643838
20773,13:45:44.827000,4.2399492,7.1607494,-5.2981405,4.0116134,-0.6717373999999999,2.1409891
20774,13:45:44.836000,3.9933567,7.3594593999999995,-5.772172,3.9884007000000006,-0.7450411,2.0860114
20775,13:45:44.855000,6.1288929,7.852644000000001,-8.815072099999998,4.444106099999999,-1.27405,2.2191799
20776,13:45:44.864000,7.754486099999999,8.1734533,-11.4940681,5.0232057999999995,-1.6295733000000001,2.4183216
20777,13:45:44.874000,9.5309067,7.6802687999999995,-14.443597800000001,5.0232057999999995,-1.6295733000000001,2.4183216
20778,13:45:44.883000,10.5819159,4.7067981,-18.709882699999998,5.6071925,-1.977766,2.7616277
20779,13:45:44.893000,13.344705599999998,1.64714,-19.9907246,5.961494,-2.3198504,3.2674236
20780,13:45:44.904000,16.033279399999998,2.9447415,-18.585388199999997,6.2534871,-2.7193561,3.8245322999999996
20781,13:45:44.915000,16.8855782,5.4681215,-15.918362599999998,6.5552545,-3.0504446,4.3669801
20782,13:45:44.924000,14.2353106,4.7834096,-16.2056541,6.4110904,-2.7389037999999997,4.5441308
20783,13:45:44.934000,11.4174566,3.7826760000000004,-17.5870495,5.658505,-2.0009789000000002,4.0212307
20784,13:45:44.944000,13.0693846,2.0637131,-18.379495600000002,4.6432476,-1.1555421000000001,3.5166564
20785,13:45:44.953000,17.8312473,6.557436500000001,-18.061080899999997,3.8906622000000004,-0.8733226999999999,3.1110423
20786,13:45:44.965000,24.98242,13.138814000000002,-17.4505863,3.7868152000000004,-0.8659924000000001,2.656559
20787,13:45:44.972000,12.2841206,13.5122929,-24.7693462,3.5510216,-0.7499281,2.5307207000000003
20788,13:45:44.982000,2.1115949,9.0927868,-30.7402287,1.3580171,1.2133911,2.204519
20789,13:45:44.992000,11.5802565,11.8172712,-21.3433895,1.3580171,1.2133911,2.204519
20790,13:45:45.001000,15.609523800000002,9.181368800000001,-14.4771147,0.7129439999999999,0.2470032,0.7848694
20791,13:45:45.014000,11.982463800000001,5.8607535,-12.655205699999998,-0.11783199999999999,-0.5116907999999999,-0.2658179
20792,13:45:45.021000,8.408075300000002,4.390777099999999,-11.5060387,-1.1098763999999999,0.3410763,-0.9817514
20793,13:45:45.034000,8.221335400000001,4.2160082,-10.9506083,-2.2338674,1.9513156000000003,-1.2517536
20794,13:45:45.040000,8.946746800000001,3.5145371,-12.2913027,-2.2338674,1.9513156000000003,-1.2517536
20795,13:45:45.051000,8.803100599999999,0.47642559999999995,-13.672698,-2.9803441000000004,2.2665219,-1.4105784
20796,13:45:45.060000,9.1358814,-2.667026,-13.7110043,-2.9803441000000004,2.2665219,-1.4105784
20797,13:45:45.069000,9.5141478,-4.1106677000000005,-13.260912900000001,-2.8496192000000002,2.0734887,-1.4105784
20798,13:45:45.081000,8.5349617,-2.9710765,-12.0758343,-2.8496192000000002,2.0734887,-1.4105784
20799,13:45:45.088000,7.203843099999999,-0.8977870000000001,-10.909908300000001,-2.4232354,2.0319498,-1.4838822
20800,13:45:45.099000,7.7377272,0.7589293,-9.5309067,-2.005404,2.0209544,-1.5669597
20801,13:45:45.108000,10.258712800000001,2.3653696,-8.3338575,-1.8074839,1.801043,-1.7954232
20802,13:45:45.117000,12.0303459,3.5360837,-8.0585365,-1.8087056000000001,1.3587770000000001,-2.0690906000000004
20803,13:45:45.127000,12.2577858,4.1968551,-8.2955523,-1.9333220000000002,1.1107658999999999,-2.2682322999999998
20804,13:45:45.137000,12.0494986,5.4729095,-8.410469099999998,-2.3511534,1.3172381000000002,-2.4588223
20805,13:45:45.148000,12.092593199999998,5.5997968,-8.051354400000001,-2.5588474,1.4076461999999998,-2.6005428
20806,13:45:45.156000,12.109351199999999,3.4355318999999995,-7.9124966,-2.5588474,1.4076461999999998,-2.6005428
20807,13:45:45.166000,11.431821800000002,1.2712663,-8.156694400000001,-3.0475392000000006,1.8413601000000002,-2.7361548
20808,13:45:45.176000,10.2802601,0.11252260000000001,-7.9627724,-3.0475392000000006,1.8413601000000002,-2.7361548
20809,13:45:45.185000,8.7719784,0.4165732,-7.3762178,-2.8129673,2.5120895,-2.6836205
20810,13:45:45.199000,6.9524631999999995,2.0804718,-6.1288929,-2.4672177000000004,2.6880186000000004,-2.6384165
20811,13:45:45.205000,5.2335,4.0244799,-4.8193212,-2.4672177000000004,2.6880186000000004,-2.6384165
20812,13:45:45.215000,3.6869121,6.6891122,-3.3948319,-1.8123707999999998,2.6464798,-2.5663345
20813,13:45:45.224000,2.7196963,8.3673754,-2.1187775,-1.8123707999999998,2.6464798,-2.5663345
20814,13:45:45.233000,2.252847,9.5787888,-1.1515615,-1.6449938999999998,2.5035374,-2.5602257
20815,13:45:45.246000,2.1451125,9.935509699999999,-0.6104951999999999,-1.6547676,2.1858877999999997,-2.5516737000000003
20816,13:45:45.253000,1.4460356,9.463872,-0.1053403,-1.6547676,2.1858877999999997,-2.5516737000000003
20817,13:45:45.264000,0.7110473,9.0353289,0.12928130000000002,-1.8807876000000001,1.9415418999999998,-2.4710395
20818,13:45:45.272000,0.5602191,8.427228,2.6789966,-1.8807876000000001,1.9415418999999998,-2.4710395
20819,13:45:45.281000,-0.6607713000000001,6.595742200000001,-0.3758735,-1.9443176,1.7057480999999999,-2.4172835
20820,13:45:45.291000,-0.7302001,6.993162599999999,0.6033128000000001,-1.9357654999999998,1.4675109,-2.4026227000000002
20821,13:45:45.301000,-0.2944742,8.082477599999999,1.1898671,-1.879566,1.1058791000000001,-2.3720793999999996
20822,13:45:45.313000,0.1197049,8.9036531,1.6375635,-1.4959428,0.4388147,-2.3280971
20823,13:45:45.321000,0.6033128000000001,9.2891026,1.8889439,-1.4959428,0.4388147,-2.3280971
20824,13:45:45.330000,1.0390389000000002,8.604391099999999,1.8865498,-1.3945393999999998,0.2164599,-2.2780063
20825,13:45:45.340000,1.2233844999999999,7.764061900000001,1.4987059,-1.3432267,0.0466395,-2.2071459
20826,13:45:45.350000,1.673475,7.7808208,1.3502717,-1.2552621000000002,-0.068203,-2.1204033
20827,13:45:45.362000,1.8793674999999999,8.175847099999999,1.1012853,-0.8386524,-0.2771187,-1.9628
20828,13:45:45.379000,2.8992536,9.3561382,0.4788198,-0.8386524,-0.2771187,-1.9628
20829,13:45:45.389000,3.126693,9.463872,-0.09097569999999999,-0.5026768,-0.46159989999999995,-1.8894963
20830,13:45:45.398000,3.4642611000000003,9.277133000000001,-0.5841601,-0.4379251,-0.43838699999999997,-1.9395871999999998
20831,13:45:45.410000,3.3517382000000007,9.3298035,-1.0031273,-0.4452555,-0.379744,-2.0128911
20832,13:45:45.416000,3.2320333,9.303467800000002,-1.3383013000000001,-0.4635815,-0.3369835,-2.0910816000000003
20833,13:45:45.428000,2.9519238,9.0856047,-1.5106763,-0.5112289000000001,-0.32843140000000004,-2.1827113999999996
20834,13:45:45.435000,2.3653696,9.471055,-1.4771589,-0.5112289000000001,-0.32843140000000004,-2.1827113999999996
20835,13:45:45.444000,1.9487964,9.5787888,-1.5681346999999999,-0.5454373,-0.3308749,-2.2621238
20836,13:45:45.456000,1.7596626,9.9618454,-1.4819472,-0.5930848000000001,-0.35042249999999997,-2.3427578999999996
20837,13:45:45.466000,1.601652,10.7854147,-1.5417996999999999,-0.6615015999999999,-0.39929169999999997,-2.4136182999999996
20838,13:45:45.478000,1.6902337,11.118194599999999,-1.4220946,-0.7409140000000001,-0.4237263,-2.446605
20839,13:45:45.485000,1.5537702,10.9506083,-1.4867353,-0.8667521,-0.4298349,-2.4490483
20840,13:45:45.495000,1.4364593,10.8093557,-1.4867353,-1.1538587,-0.40295690000000006,-2.3439796000000004
20841,13:45:45.505000,1.3622421,10.9194841,-1.2233844999999999,-1.1538587,-0.40295690000000006,-2.3439796000000004
20842,13:45:45.515000,1.3167541999999999,11.053553599999999,-0.9241222,-1.2344928,-0.4017352,-2.215698
20843,13:45:45.527000,0.9456690000000001,10.783021000000002,-0.9145458000000001,-1.3151268999999999,-0.3711919,-1.8039752
20844,13:45:45.535000,1.2018377,10.232378,-0.5147311999999999,-1.3151268999999999,-0.3711919,-1.8039752
20845,13:45:45.545000,-0.0215469,10.0193033,-1.0366447,-1.3175703,-0.2453538,-1.2786316
20846,13:45:45.555000,0.6128892,10.2395601,-0.7589293,-1.3175703,-0.2453538,-1.2786316
20847,13:45:45.566000,1.7189629000000002,10.256319,-0.7062590999999999,-1.2271623999999999,-0.2282496,-0.8522481
20848,13:45:45.577000,0.2609568,10.0049391,-0.7493529000000001,-1.2320493000000001,-0.09874630000000001,-0.6445541
20849,13:45:45.581000,0.4931844,9.9857864,-0.48121379999999997,-1.2320493000000001,-0.09874630000000001,-0.6445541
20850,13:45:45.594000,1.6519281000000003,9.796651800000001,-0.3112328,-1.2357143999999998,0.0051007,-0.40020809999999996
20851,13:45:45.600000,-0.047882,9.1526403,-0.122099,-1.2357143999999998,0.0051007,-0.40020809999999996
20852,13:45:45.610000,-0.0813994,9.2867088,0.3710853,-1.233271,0.12360850000000001,-0.27192659999999996
20853,13:45:45.621000,-0.059852499999999996,9.236433,1.0486152,-1.1905105,0.256777,-0.16319270000000002
20854,13:45:45.631000,-0.9289103000000001,9.0544806,1.1060736,-1.0243553,0.2225686,0.07870980000000001
20855,13:45:45.644000,-1.8243033,8.8007069,0.9049693000000001,-0.8972955,0.1590387,0.18744370000000002
20856,13:45:45.651000,-2.4898627,8.424833300000001,0.8834224,-0.7067055999999999,-0.1378416,0.186222
20857,13:45:45.660000,-2.8872831000000003,8.2716112,0.5075489000000001,-0.46724659999999996,-0.6619635,0.0689359
20858,13:45:45.670000,-3.1434517000000004,8.3554049,0.0359115,-0.46724659999999996,-0.6619635,0.0689359
20859,13:45:45.679000,-2.8106720000000003,8.664242699999999,0.1532223,0.14972670000000002,-2.2098949,-0.3220175
20860,13:45:45.691000,-2.1762357000000003,8.9826584,0.059852499999999996,0.14972670000000002,-2.2098949,-0.3220175
20861,13:45:45.697000,-1.7165686999999998,9.303467800000002,0.4093909,0.43561140000000004,-3.1017572999999996,-0.5602548
20862,13:45:45.709000,-1.7883917,9.6841288,0.9456690000000001,0.7789174,-4.492084999999999,-0.8840130999999999
20863,13:45:45.717000,-2.4252219,9.732010800000001,0.7062590999999999,0.7789174,-4.492084999999999,-0.8840130999999999
20864,13:45:45.728000,-2.8441892,9.6937056,0.557825,0.6445272,-5.465803599999999,-1.0465030999999998
20865,13:45:45.740000,-2.0972304,7.946013499999999,3.1075404,0.6200926,-6.3417835,-1.3372746000000002
20866,13:45:45.747000,-1.79318,7.199055199999999,2.9231944,0.6200926,-6.3417835,-1.3372746000000002
20867,13:45:45.758000,-2.1163833,7.0769558,3.6007245,0.9866113999999999,-7.0638255999999995,-1.0623854
20868,13:45:45.767000,-1.1778966,6.555042299999999,5.2526526,0.9866113999999999,-7.0638255999999995,-1.0623854
20869,13:45:45.777000,0.6200716,4.7259512,5.9541235,1.7294228999999999,-7.4560008,-1.5254208999999999
20870,13:45:45.786000,1.4412475,3.8951987999999997,4.5799112,1.7294228999999999,-7.4560008,-1.5254208999999999
20871,13:45:45.795000,2.4060693,5.6500731,-0.0311233,2.3415093,-7.073599300000001,-1.7783189
20872,13:45:45.807000,3.5456602999999998,8.2740059,-1.3742126000000001,3.8760016000000004,-5.620963099999999,-1.5266427
20873,13:45:45.815000,3.9047748999999996,8.0298071,-2.8489776,3.8760016000000004,-5.620963099999999,-1.5266427
20874,13:45:45.825000,2.9758646,5.5782499,-2.0589249,4.0629263,-4.6264753,-1.3641527
20875,13:45:45.834000,1.6375635,2.7747604999999997,-1.0725563,3.5595737,-3.360764,-1.2138799
20876,13:45:45.844000,1.8937321,0.07661119999999999,-0.2968683,2.6322807999999998,-2.2929722999999997,-0.8901216999999999
20877,13:45:45.857000,3.3493443,-2.5999912999999997,0.31362690000000004,1.8442655,-1.5428305,-0.6482193
20878,13:45:45.864000,2.837007,-2.5808383999999998,0.8068113,1.6304628,-0.9478482,-0.5639199
20879,13:45:45.875000,1.9104908,0.5434604000000001,1.5346173,2.6371679,0.26777259999999997,-0.2364964
20880,13:45:45.883000,1.333513,4.2543135,1.3143603000000001,2.6371679,0.26777259999999997,-0.2364964
20881,13:45:45.903000,0.7637175,8.1614828,0.1268872,3.6035559,0.9287281999999999,0.1886654
20882,13:45:45.911000,0.14604,9.346562400000002,-0.8570873999999999,3.6035559,0.9287281999999999,0.1886654
20883,13:45:45.922000,-0.8882107,10.9984903,-1.8961263,3.4508398000000002,1.1694088,0.2485302
20884,13:45:45.931000,-1.3478776000000001,12.8443403,-2.305517,3.4508398000000002,1.1694088,0.2485302
20885,13:45:45.942000,-1.3718187,14.544150400000001,-2.5353506,3.2162676,1.3196816,0.3083949
20886,13:45:45.951000,-1.0055215,15.836962699999997,-1.7405096999999998,3.2162676,1.3196816,0.3083949
20887,13:45:45.960000,-0.6631654,16.2056541,-0.557825,2.8876223999999997,1.4565153,0.3865856
20888,13:45:45.973000,-0.3926322,15.446724900000001,0.0622466,1.7538575,1.4442979999999999,0.5918361999999999
20889,13:45:45.980000,-0.17955739999999998,14.1060305,-0.2968683,1.7538575,1.4442979999999999,0.5918361999999999
20890,13:45:45.991000,0.1149167,13.1029024,-0.9863687,1.0024939,0.7527991999999999,0.43911999999999995
20891,13:45:46,0.3734794,13.213030800000002,-1.5346173,1.0024939,0.7527991999999999,0.43911999999999995
20892,13:45:46.009000,0.6871063000000001,12.8180046,-1.8961263,0.8057954,0.0417526,0.16300910000000002
20893,13:45:46.022000,0.9049693000000001,11.953735400000001,-2.0349839,0.8057954,0.0417526,0.16300910000000002
20894,13:45:46.028000,0.8762401,11.0511599,-2.2408764,0.5272411,-0.1488372,0.0652708
20895,13:45:46.039000,0.9001811,10.862026199999999,-1.7812095000000001,0.2352478,-0.2233627,0.0616056
20896,13:45:46.048000,0.9121516,11.288175599999999,-1.4795530000000001,0.0238886,-0.2575711,0.082375
20897,13:45:46.057000,1.0701622,11.8412123,-1.2066257,-0.27910029999999997,-0.3125489,0.1153617
20898,13:45:46.067000,0.9576395000000001,12.2146921,-1.0701622,-0.27910029999999997,-0.3125489,0.1153617
20899,13:45:46.076000,0.8977870000000001,12.3798847,-0.9217280000000001,-0.40616009999999997,-0.2954447,0.1214703
20900,13:45:46.088000,0.9576395000000001,12.4564962,-0.8379346,-0.6566147,-0.1366199,0.06771419999999999
20901,13:45:46.096000,1.1300146999999998,12.6456299,-0.6440126,-0.6566147,-0.1366199,0.06771419999999999
20902,13:45:46.106000,1.3287247,12.798852,-0.3495384,-0.8117744,0.06252200000000001,0.0432796
20903,13:45:46.115000,1.3263308,12.659994099999999,-0.1867397,-0.8117744,0.06252200000000001,0.0432796
20904,13:45:46.125000,1.3742126000000001,12.509165800000002,-0.1723751,-0.8679739,0.1895819,0.0970357
20905,13:45:46.140000,1.6136225,12.5762014,-0.2753213,-1.0280205,0.4608058,0.1923306
20906,13:45:46.144000,1.7022042000000002,12.6025362,-0.6464066999999999,-1.0280205,0.4608058,0.1923306
20907,13:45:46.156000,1.8195150000000002,12.5762014,-0.30883879999999997,-1.2088364,0.7894511,0.36703790000000003
20908,13:45:46.164000,1.8290915,12.4373426,-0.05745840000000001,-1.2088364,0.7894511,0.36703790000000003
20909,13:45:46.174000,1.5705287,12.2027206,0.1532223,-1.5130471,1.245156,0.407355
20910,13:45:46.187000,1.5010998,11.9513407,0.0885817,-1.7671668999999999,1.4846151,0.4159071
20911,13:45:46.192000,1.5106763,11.561102900000002,0.6751359,-1.7671668999999999,1.4846151,0.4159071
20912,13:45:46.206000,1.4244888,11.1971998,0.6607713000000001,-2.4378963,1.8670163,0.3780335
20913,13:45:46.212000,1.3287247,10.7878094,1.2497194999999999,-2.4378963,1.8670163,0.3780335
20914,13:45:46.222000,1.2281727,10.1007032,1.6662928,-3.2527897,2.3239431,0.3157253
20915,13:45:46.232000,0.9145458000000001,9.3561382,1.6998101000000003,-3.2527897,2.3239431,0.3157253
20916,13:45:46.241000,0.7780821,8.3386459,1.8314854999999999,-3.7219337999999995,2.5511849,0.32427740000000005
20917,13:45:46.254000,0.7924467,7.1894784,1.6998101000000003,-4.7738428,2.8163002,0.5588495
20918,13:45:46.261000,1.3574538999999999,6.1336808,1.4675825,-4.7738428,2.8163002,0.5588495
20919,13:45:46.271000,2.7771543999999997,4.9893022,0.9504572,-5.250317099999999,2.9800119,0.70057
20920,13:45:46.280000,4.7379217,3.7826760000000004,0.8187817,-5.6131706,3.1034067000000003,0.8190778000000001
20921,13:45:46.289000,6.1264987,3.3445561,-0.4046027,-5.900277099999999,3.1534975,1.093967
20922,13:45:46.302000,6.3515439,3.5169311000000003,-1.1371969,-6.123853700000001,3.5175729,1.7708051
20923,13:45:46.309000,5.4369984,2.5449269,-0.9552454,-6.02245,4.5083957,2.6211287999999997
20924,13:45:46.320000,3.4714432,0.3998145,-2.0349839,-5.675478900000001,5.9109411,2.8434833999999998
20925,13:45:46.328000,-0.4069968,-2.252847,-3.3014622000000005,-5.4555678,7.1644354,2.2350624
20926,13:45:46.339000,-6.5263127999999995,-3.5001721,-1.5202527,-4.5844746,7.6152534,2.2802662999999996
20927,13:45:46.347000,-12.968833,-4.4027476,0.13885770000000003,-4.5844746,7.6152534,2.2802662999999996
20928,13:45:46.357000,-10.9697599,-0.7445647,-0.6607713000000001,-3.1379473,6.650087400000001,2.4390912
20929,13:45:46.370000,-4.488935,3.7874641000000002,-0.8355404000000001,-0.5955282,2.2604132000000003,0.9962285
20930,13:45:46.376000,-0.8307523000000001,8.9323816,0.49557840000000003,-0.5955282,2.2604132000000003,0.9962285
20931,13:45:46.387000,-0.316021,10.9793367,5.5758562000000005,0.46615470000000003,0.7051516999999999,-0.66288
20932,13:45:46.396000,-3.5408720999999996,7.8837671,9.6793413,0.46615470000000003,0.7051516999999999,-0.66288
20933,13:45:46.406000,-5.0683069000000005,7.2469368,11.108617800000001,0.4343897,1.0313535,-0.8791261
20934,13:45:46.418000,-4.8504438,8.5301743,13.603268599999998,0.1020793,0.9385020000000001,-0.7239665
20935,13:45:46.437000,-6.3036617999999995,10.5890989,9.5787888,0.0006757000000000001,0.1517083,-0.513829
20936,13:45:46.444000,-5.1928,7.6204165999999995,8.130359599999998,0.0006757000000000001,0.1517083,-0.513829
20937,13:45:46.455000,-2.1953886000000002,5.8823004,7.2828484,-0.22656590000000001,-0.8818749,-0.3110219
20938,13:45:46.464000,-0.5362781,5.9636998,6.3539381,-0.22656590000000001,-0.8818749,-0.3110219
20939,13:45:46.473000,-0.1149167,5.6428905,5.022819,0.6433054,-1.0687995000000001,-0.0031460999999999998
20940,13:45:46.488000,-0.028729200000000003,4.6637044,3.4642611000000003,0.9890548000000001,-0.9722828000000001,0.19843929999999999
20941,13:45:46.492000,0.0335174,2.4994389999999997,2.497045,1.2578353,-0.9515134,0.48921090000000006
20942,13:45:46.501000,0.0430938,0.22743939999999999,1.2999957,1.2578353,-0.9515134,0.48921090000000006
20943,13:45:46.511000,0.6152834,-0.7230178,0.3902381,1.5852588,-0.9454048,0.8655035
20944,13:45:46.522000,1.5274348999999998,0.4931844,0.019152799999999998,2.1289284,-0.9820565999999998,1.2833351
20945,13:45:46.532000,2.1139894,3.2870975,0.059852499999999996,2.8754051,-1.021152,1.6461887
20946,13:45:46.541000,2.5904147999999996,5.9301825,0.0311233,3.6145513,-0.9967174000000001,1.9418471999999998
20947,13:45:46.552000,3.3708911,7.4887409,-0.0167587,4.3378153,-0.872101,2.2485013
20948,13:45:46.561000,4.0388446,7.914890299999999,-0.122099,4.3378153,-0.872101,2.2485013
20949,13:45:46.570000,4.0747561,7.347488900000001,-0.44051409999999996,4.3133807,-0.795132,2.2558317000000003
20950,13:45:46.582000,3.6222714999999996,6.2102919000000005,-1.2545078,4.1569996,-0.6619635,2.2301752999999995
20951,13:45:46.590000,3.6270595,5.3077168,-2.2001767000000005,3.9688529999999997,-0.5165777,2.2216232000000002
20952,13:45:46.601000,3.9957507000000003,4.6613107000000005,-3.4283495000000004,3.8149148999999998,-0.5006952,2.186193
20953,13:45:46.610000,4.3931708,4.3428949999999995,-4.476964499999999,3.8149148999999998,-0.5006952,2.186193
20954,13:45:46.619000,4.7091918,4.2255845,-5.0994306,3.8601191,-0.6143161,2.2032974
20955,13:45:46.629000,5.0778837,4.3716245,-5.4729095,3.8601191,-0.6143161,2.2032974
20956,13:45:46.638000,5.4776978,4.6708865,-5.2215295,3.8723364,-0.650968,2.2326188
20957,13:45:46.649000,5.5183973,5.302928400000001,-5.2837758,3.8527887,-0.664407,2.2436144000000002
20958,13:45:46.657000,5.8463888,6.1097398,-4.8624144,3.7941456,-0.5898815,2.2008537999999995
20959,13:45:46.667000,5.9996114,6.3204203,-4.5966697,3.4618351,-0.40295690000000006,2.1153327999999996
20960,13:45:46.676000,5.4753041,6.4616723,-4.6373695999999995,3.4618351,-0.40295690000000006,2.1153327999999996
20961,13:45:46.686000,5.2789874,7.618022,-4.776227,3.1869462000000004,-0.27223179999999997,2.150763
20962,13:45:46.700000,5.9038477,9.5141478,-5.022819,3.0953164,-0.21603229999999998,2.0750158
20963,13:45:46.706000,6.452096,11.3647871,-5.8966651,3.0953164,-0.21603229999999998,2.0750158
20964,13:45:46.718000,7.285242599999999,12.6384468,-7.0242853,3.3408839999999995,-0.3638616,1.9723903999999999
20965,13:45:46.726000,9.303467800000002,13.6750917,-8.669032099999999,3.8332410000000006,-0.6570766,1.9210778000000002
20966,13:45:46.735000,12.090199499999999,15.204920800000002,-10.2299843,4.5455093,-1.1372163,1.9161909
20967,13:45:46.749000,13.809162099999998,14.1850348,-11.6496849,5.295651400000001,-1.98754,2.470856
20968,13:45:46.754000,13.457228699999998,9.6889181,-13.347101199999999,5.295651400000001,-1.98754,2.470856
20969,13:45:46.769000,15.0756397,9.236433,-13.7493086,4.6298089000000004,-1.7700721999999998,3.3834879
20970,13:45:46.774000,17.007677100000002,9.226857199999998,-13.323160199999998,4.6298089000000004,-1.7700721999999998,3.3834879
20971,13:45:46.783000,16.1051025,7.783214999999999,-14.0461769,4.2816157,-1.5709302,3.2429891
20972,13:45:46.794000,13.6296043,6.083405,-14.627943,3.6463163,-0.9454048,2.8581442999999997
20973,13:45:46.803000,12.1644163,6.1145282,-14.01266,2.3732743,0.3093114,2.3645656
20974,13:45:46.818000,12.365519500000001,8.695366900000002,-12.7150583,2.3732743,0.3093114,2.3645656
20975,13:45:46.822000,12.250602699999998,10.6824694,-11.7502375,2.1338152999999997,0.48890559999999994,2.0579113999999996
20976,13:45:46.834000,10.8165379,11.5802565,-11.7406597,1.4435381999999999,0.8102204000000001,1.8514392
20977,13:45:46.842000,9.471055,10.3856001,-11.8100891,1.4435381999999999,0.8102204000000001,1.8514392
20978,13:45:46.851000,9.4590836,8.0250187,-11.7646008,0.9414074,0.9287281999999999,1.8294481
20979,13:45:46.865000,9.6218834,5.9565177,-11.7023554,0.4087334,0.8456505999999999,1.6840624
20980,13:45:46.871000,8.9156237,4.7905917,-11.7454481,-0.06163250000000001,0.7613513000000001,1.4201688000000001
20981,13:45:46.882000,8.3147049,4.630187,-11.2163534,-0.39882979999999996,0.8432072,1.1232885
20982,13:45:46.891000,8.1973944,5.3579931,-11.0008841,-0.610189,0.9372804,0.7860911
20983,13:45:46.901000,8.688183800000001,5.5255799,-10.8213263,-0.9180648000000001,0.7772338000000001,0.1031444
20984,13:45:46.910000,9.5859709,5.630920400000001,-10.7111979,-0.9180648000000001,0.7772338000000001,0.1031444
20985,13:45:46.919000,10.206043199999998,5.5279741,-10.756686199999999,-1.0671158,0.6049699000000001,-0.21084009999999997
20986,13:45:46.932000,10.833296800000001,5.4441805,-10.9146957,-1.2980227,0.3667327,-0.734962
20987,13:45:46.948000,12.791669800000001,4.747498,-10.2467432,-1.2980227,0.3667327,-0.734962
20988,13:45:46.957000,13.5242643,3.9119572999999996,-10.2156191,-1.5142688,0.3667327,-1.2725229
20989,13:45:46.967000,13.648757000000002,3.7850699,-9.5141478,-1.6474373,0.5170054000000001,-1.5290861
20990,13:45:46.980000,13.0191088,4.3955655,-9.0520868,-1.7366235,0.8065553000000001,-1.7025717
20991,13:45:46.987000,12.365519500000001,5.1856179000000004,-8.3817396,-1.7830491999999998,1.1816261000000001,-1.8504009
20992,13:45:47.001000,12.1213217,5.7937188,-7.8789792,-1.9797478,1.8328080000000002,-2.1338422
20993,13:45:47.007000,11.795724900000002,5.9325767,-7.3762178,-1.9797478,1.8328080000000002,-2.1338422
20994,13:45:47.016000,11.1660767,5.539944599999999,-7.0530152,-2.1874417999999998,2.0307281,-2.3048843999999997
20995,13:45:47.026000,10.1725264,4.409930200000001,-6.2653565,-2.4562223,2.221318,-2.4453833
20996,13:45:47.036000,8.6833963,3.3469501000000004,-5.6093736,-2.7091203,2.3862514,-2.5223522000000003
20997,13:45:47.050000,7.251725200000001,3.3469501000000004,-4.8600205999999995,-2.8520625,2.4363422000000003,-2.5492301
20998,13:45:47.055000,6.823181599999999,4.9557843,-4.1250324,-2.8520625,2.4363422000000003,-2.5492301
20999,13:45:47.065000,7.110473599999999,7.550987700000001,-3.2511859,-2.4317877,2.035615,-2.6029863
21000,13:45:47.075000,6.7800875,9.1837626,-2.1929946,-2.4317877,2.035615,-2.6029863
21001,13:45:47.084000,6.535889599999999,8.6426964,-1.3837892,-2.3218319,1.9488723000000001,-2.6066515
21002,13:45:47.096000,5.14013,6.7417822,-0.9097575000000001,-2.4427831,2.044167,-2.5357912000000002
21003,13:45:47.104000,3.4738371,5.4010868,-0.48121379999999997,-2.4427831,2.044167,-2.5357912000000002
21004,13:45:47.115000,2.6574495,5.875118700000001,0.1651928,-2.2240937,2.2457526000000003,-2.3207668999999997
21005,13:45:47.123000,1.9416142,6.9692216,0.7421706,-2.2240937,2.2457526000000003,-2.3207668999999997
21006,13:45:47.132000,0.8259639999999999,7.9771371,0.9432749,-1.7744971999999999,2.0734887,-2.0018954
21007,13:45:47.143000,0.2513804,8.326675400000001,2.1379302000000004,-1.7744971999999999,2.0734887,-2.0018954
21008,13:45:47.152000,-0.09097569999999999,8.0776892,1.8626089,-1.5252643999999997,1.6556573,-1.683024
21009,13:45:47.164000,-0.05745840000000001,8.257247,1.8841558,-1.4104218000000002,1.4540718000000001,-1.5022081
21010,13:45:47.171000,0.22025709999999998,8.0729008,1.9009144,-1.4104218000000002,1.4540718000000001,-1.5022081
21011,13:45:47.181000,0.2633509,8.1207829,1.7788153999999998,-1.2882489,1.2353823,-1.4154652
21012,13:45:47.191000,0.6224656999999999,8.7576132,1.8626089,-1.174628,1.055788,-1.3397181
21013,13:45:47.200000,1.6878396,8.7528248,2.0110431,-1.0463464,0.8456505999999999,-1.2774098999999999
21014,13:45:47.211000,2.693361,8.300340700000001,1.8290915,-0.8936303,0.3288591,-1.3018445
21015,13:45:47.219000,3.2799153,8.0800838,1.4556118999999998,-0.8447610000000001,0.1871384,-1.3372746000000002
21016,13:45:47.228000,3.9742040999999997,8.082477599999999,1.4197004999999998,-0.8447610000000001,0.1871384,-1.3372746000000002
21017,13:45:47.239000,4.3357129,8.020231200000001,1.0390389000000002,-0.7629051,0.1040608,-1.3812568
21018,13:45:47.249000,4.3931708,7.936437599999999,1.333513,-0.7164794,0.08573489999999999,-1.4741083000000001
21019,13:45:47.261000,4.0196919,7.347488900000001,1.5633465,-0.6798276,0.2641074,-1.656146
21020,13:45:47.268000,3.5049605,7.3235478,1.5154645,-0.6798276,0.2641074,-1.656146
