,time,ax,ay,az,wx,wy,wz
19149,10:52:25.004000,-4.5966697,4.4434476,5.2909579,-0.7421358,-0.2477973,-0.38554740000000004
19150,10:52:25.021000,-4.747498,4.3021955,5.8655419,-0.7482444,-0.13051120000000002,-0.2548223
19151,10:52:25.026000,-4.7139807000000005,4.1465788,6.2797208,-0.7030404,-0.0938593,-0.2181705
19152,10:52:25.038000,-4.7331328,4.0747561,6.607712299999999,-0.6419539000000001,-0.08164199999999999,-0.1485319
19153,10:52:25.042000,-4.682857,3.9765980000000005,6.6340475,-0.618741,-0.07308989999999999,-0.0520153
19154,10:52:25.051000,-4.6637044,3.9023809000000003,6.7202349,-0.6162976,-0.043768400000000006,0.029840600000000002
19155,10:52:25.060000,-4.7211623,4.0220861,6.983585799999999,-0.6162976,-0.043768400000000006,0.029840600000000002
19156,10:52:25.071000,-4.8073505999999995,3.8066169999999997,7.1128674,-0.6016369,0.0405309,0.0921488
19157,10:52:25.083000,-4.723557,3.442714,7.203843099999999,-0.6297366999999999,0.2323424,0.15934389999999998
19158,10:52:25.091000,-4.7690444,3.2272451,7.1583557,-0.6297366999999999,0.2323424,0.15934389999999998
19159,10:52:25.101000,-5.2430763,2.9184062,7.1176553,-0.687158,0.3056462,0.2033262
19160,10:52:25.110000,-5.6596494,2.6981492,7.110473599999999,-0.6529496,0.4424799,0.1923306
19161,10:52:25.120000,-6.0714345000000005,2.8178542,7.0242853,-0.5503241999999999,0.5072315,0.1214703
19162,10:52:25.132000,-6.2725387,2.9495296000000004,7.115261599999999,-0.3401868,0.3484067,0.0616056
19163,10:52:25.140000,-6.3276029000000005,2.9974117000000002,7.4360704,-0.3401868,0.3484067,0.0616056
19164,10:52:25.150000,-6.2366271,2.8058836,7.6970277000000005,-0.221679,0.0967304,-0.043463199999999994
19165,10:52:25.159000,-6.006794,2.4180398,7.881372900000001,-0.221679,0.0967304,-0.043463199999999994
19166,10:52:25.168000,-6.0738287,1.9990726000000003,8.127965,-0.2461136,0.0319788,-0.07034119999999999
19167,10:52:25.181000,-6.394638099999999,1.7237511000000003,8.412862800000001,-0.3157522,0.014874600000000002,-0.0495718
19168,10:52:25.188000,-6.868669500000001,1.6136225,8.499051099999999,-0.3609562,0.0784045,-0.033689300000000005
19169,10:52:25.202000,-7.3115773,1.7883917,8.585238499999999,-0.19235750000000001,0.2555553,-0.0617891
19170,10:52:25.208000,-7.2445431,2.0685015,9.0856047,-0.19235750000000001,0.2555553,-0.0617891
19171,10:52:25.218000,-7.464799900000001,2.3725517000000003,8.958718300000001,0.08130989999999999,0.3813934,-0.11921040000000001
19172,10:52:25.226000,-8.187817599999999,3.3780732,8.4655333,0.08130989999999999,0.3813934,-0.11921040000000001
19173,10:52:25.236000,-7.6994214,2.6239324,8.8677416,0.2034828,0.4791318,-0.1045496
19174,10:52:25.248000,-8.3721638,3.1985159,8.604391099999999,0.3928509,0.5780919,-0.1864055
19175,10:52:25.256000,-8.9084406,3.5696013,9.1454573,0.3928509,0.5780919,-0.1864055
19176,10:52:25.266000,-9.0927868,3.7707055,8.7528248,0.6469706000000001,0.4986795,0.28029509999999996
19177,10:52:25.276000,-8.9850531,3.6821237,8.4822922,0.6469706000000001,0.4986795,0.28029509999999996
19178,10:52:25.284000,-8.613966900000001,3.6797296999999998,8.6019974,0.7190526999999999,0.3679544,0.33893809999999996
19179,10:52:25.298000,-8.178241700000001,3.6869121,8.4463797,0.9279684000000001,0.1468213,0.4598894
19180,10:52:25.305000,-7.9771371,3.7371883,8.010654400000002,0.9279684000000001,0.1468213,0.4598894
19181,10:52:25.315000,-7.9508018,3.8951987999999997,7.7903975999999995,1.2590569999999999,0.1590387,0.6688050999999999
19182,10:52:25.324000,-7.8023682,4.1082735,7.4815583,1.2590569999999999,0.1590387,0.6688050999999999
19183,10:52:25.333000,-7.5102877999999995,4.1537614000000005,7.1559610000000005,1.3946691,0.1822515,0.7812041999999999
19184,10:52:25.347000,-6.9955564,3.9382925,6.7896638,1.5168419,0.1297171,0.9803460999999999
19185,10:52:25.353000,-6.4209727999999995,3.5935422999999993,6.3587264999999995,1.5168419,0.1297171,0.9803460999999999
19186,10:52:25.365000,-5.9086356,2.9998057,5.853571400000001,1.349465,0.11261289999999999,1.2833351
19187,10:52:25.373000,-5.3771458,2.5856267999999996,5.199982599999999,1.2724961000000001,0.12849539999999998,1.4458251
19188,10:52:25.391000,-4.1920671,3.3517382000000007,4.673281200000001,1.2724961000000001,0.12849539999999998,1.4458251
19189,10:52:25.400000,-3.6893062999999993,4.1968551,4.508088099999999,1.6561191000000002,0.0405309,2.0114858
19190,10:52:25.411000,-3.1793633,5.0850654,4.8145323,1.6939927,0.0026573,2.1886365000000003
19191,10:52:25.421000,-3.0261407000000005,5.331657900000001,5.0539427,1.6939927,0.0026573,2.1886365000000003
19192,10:52:25.430000,-3.1649985000000003,4.5487876,4.6948276,1.2871568000000002,0.08695660000000001,2.4781864
19193,10:52:25.439000,-3.2583685,2.7412429,3.8664693999999997,1.2871568000000002,0.08695660000000001,2.4781864
19194,10:52:25.450000,-2.9543178,0.459667,2.693361,1.0122677,0.1455996,2.4806299
19195,10:52:25.462000,-2.2456646,-0.9265162,1.7716331000000003,0.8790992,0.1993557,2.3694525
19196,10:52:25.469000,-1.3909714,-0.8858166,1.3023897,0.8790992,0.1993557,2.3694525
19197,10:52:25.479000,-0.8594815,0.23222759999999998,1.3311188,1.1576535,0.107726,2.2338405
19198,10:52:25.488000,-1.1108619,2.1092009999999997,1.2808429,1.737975,0.05519169999999999,1.9882729
19199,10:52:25.498000,-1.6303812,3.5767834,1.0438271000000001,2.4526868,0.050304699999999994,1.7818006000000002
19200,10:52:25.511000,-2.0445604,5.2622290000000005,1.4627944,3.0207908,0.0014356,1.6865058000000002
19201,10:52:25.518000,-1.8458501,5.602191,1.5010998,2.962148,-0.068203,1.7109404
19202,10:52:25.528000,-1.4699767,5.362781,1.2233844999999999,2.962148,-0.068203,1.7109404
19203,10:52:25.537000,-1.237749,4.9055085,0.9935510000000001,2.4514649,-0.10729839999999999,1.7585878000000001
19204,10:52:25.547000,-1.3119662,4.3979597,0.5362781,1.7636313000000001,-0.1683848,1.938182
19205,10:52:25.557000,-1.4197004999999998,4.3668360999999996,0.5027608,1.7636313000000001,-0.1683848,1.938182
19206,10:52:25.566000,-1.4029418,4.6900395999999995,0.6727418000000001,2.0311901999999997,-0.42128279999999996,2.0921199
19207,10:52:25.578000,-1.2976014999999999,4.9533906,0.4740316,2.19368,-0.5678904,2.1849713
19208,10:52:25.586000,-1.139591,5.688378299999999,0.24419810000000003,2.19368,-0.5678904,2.1849713
19209,10:52:25.597000,-0.7086533,6.607712299999999,0.1197049,2.4722345000000003,-0.8879834999999999,2.385335
19210,10:52:25.605000,-0.24419810000000003,7.026680000000001,0.1723751,2.4722345000000003,-0.8879834999999999,2.385335
19211,10:52:25.614000,0.2298335,7.2541189,0.3974204,2.6066246,-1.034591,2.4696342999999996
19212,10:52:25.628000,0.33756790000000003,7.1344147,0.18195150000000002,2.6848153999999997,-1.2984846,2.899683
19213,10:52:25.633000,0.35672070000000006,6.629259599999999,-0.0790053,2.6628242,-1.4402051000000002,3.1977851000000004
19214,10:52:25.644000,0.3806617,5.9253945,-0.9001811,2.6628242,-1.4402051000000002,3.1977851000000004
19215,10:52:25.653000,0.8379346,4.7953801,-1.721357,2.6383896,-1.6161341999999999,3.5252084999999997
19216,10:52:25.662000,1.4939176,3.7659172999999995,-2.1929946,2.5259905,-2.1145999,4.2655768
19217,10:52:25.673000,2.2887584999999997,2.8058836,-2.5904147999999996,2.5259905,-2.1145999,4.2655768
19218,10:52:25.682000,3.0428995999999997,2.6023853,-3.7539468,2.5760813,-2.2893071,4.5587916
19219,10:52:25.694000,4.407536,3.809011,-5.1233716,3.3640969,-2.5226576,4.4598317000000005
19220,10:52:25.702000,5.927788700000001,5.6979551,-6.626865400000001,3.3640969,-2.5226576,4.4598317000000005
19221,10:52:25.711000,7.498317699999999,6.8327579,-7.6515393,4.4196715,-2.9331586,4.011457
19222,10:52:25.721000,7.778427099999999,7.809549799999999,-9.521330800000001,4.4196715,-2.9331586,4.011457
19223,10:52:25.730000,7.7903975999999995,7.8646145,-11.479702900000001,4.5760527,-3.1371875,4.0676565
19224,10:52:25.743000,9.0568762,6.7441759,-12.0758343,4.3182678,-3.6881873999999994,4.6052175
19225,10:52:25.750000,10.4047527,3.4834137000000003,-12.7773046,4.3182678,-3.6881873999999994,4.6052175
19226,10:52:25.760000,10.945818899999999,-0.4740316,-13.1220551,4.916915400000001,-4.1976485,4.390193
19227,10:52:25.769000,9.253191900000001,-4.3859892,-13.368646599999998,4.916915400000001,-4.1976485,4.390193
19228,10:52:25.779000,6.0881929,-6.827969599999999,-15.9063921,5.3775072,-3.6515355000000005,3.6718161
19229,10:52:25.792000,3.4259553,-8.5924196,-19.224611300000003,5.427598000000001,-3.2532517999999997,3.0242996
19230,10:52:25.798000,2.2767880000000003,-9.923539199999999,-20.6227665,5.623075,-3.0382272999999995,2.3902217999999995
19231,10:52:25.809000,2.8585539,-9.9857864,-19.978754000000002,5.623075,-3.0382272999999995,2.3902217999999995
19232,10:52:25.818000,5.362781,-8.712124800000002,-17.488891600000002,5.5803142,-2.9966886,2.0652418000000003
19233,10:52:25.828000,8.7312784,-7.2134194,-16.136226699999998,4.3903499,-3.247143,1.983386
19234,10:52:25.838000,10.8261147,-5.0994306,-18.8511333,4.3903499,-3.247143,1.983386
19235,10:52:25.847000,11.407880800000001,-3.6390300000000004,-21.4774609,3.9114316,-2.9246066,1.7732486
19236,10:52:25.859000,10.3042011,-2.7364547000000004,-21.5325241,4.4343319,-1.9472228999999999,1.4470468
19237,10:52:25.866000,8.307522800000001,-2.300729,-21.5684357,4.4343319,-1.9472228999999999,1.4470468
19238,10:52:25.877000,7.055409,-2.8944654,-22.4829826,4.0653696,-0.9906088,1.6461887
19239,10:52:25.886000,7.1176553,-4.2040377,-22.9211025,4.0653696,-0.9906088,1.6461887
19240,10:52:25.895000,8.2811871,-5.6524668,-22.854066800000002,3.2749107000000004,-0.9075310999999999,1.5398983
19241,10:52:25.904000,10.2778664,-5.8080834999999995,-22.6026859,2.4575737,-0.795132,1.2931089
19242,10:52:25.914000,11.762207,-4.1609435,-22.7774563,1.634128,-0.6656287,0.9388073
19243,10:52:25.926000,11.5850439,-1.8697912,-21.587587399999997,0.5626713000000001,0.0026573,-0.18274029999999997
19244,10:52:25.935000,9.657794,0.0335174,-20.1008549,0.5626713000000001,0.0026573,-0.18274029999999997
19245,10:52:25.953000,7.5222583,-1.6686869,-20.534183499999997,0.1912655,0.6770520000000001,-0.6518844
19246,10:52:25.963000,9.3872614,-3.7419762999999997,-20.6706486,-1.9724173999999999,1.5066063,-1.091707
19247,10:52:25.975000,11.228323,-4.852837999999999,-20.1176128,-3.1868165,1.6483269,-1.4130218
19248,10:52:25.982000,11.508433300000002,-5.0036664,-19.490358399999998,-3.9210756,1.9647548,-1.7404453999999998
19249,10:52:25.993000,10.4622116,-4.5679407,-18.6524239,-4.1886344,2.5291936,-2.0409908
19250,10:52:26.002000,9.1095457,-3.7994347,-17.194418,-4.184968899999999,3.187706,-2.35131
19251,10:52:26.012000,8.1949997,-3.5432663,-16.5623741,-4.1861911,3.8071227,-2.6665162999999996
19252,10:52:26.023000,8.312311200000002,-3.8832282999999994,-15.8417511,-4.3938847,4.2481675,-3.0012701
19253,10:52:26.031000,8.6259384,-4.524846599999999,-14.4627514,-4.7616252999999995,4.4595265,-3.3457977999999997
19254,10:52:26.042000,8.3721638,-4.9940901,-14.328681,-5.1147051,4.6256819,-3.5840351999999998
19255,10:52:26.049000,8.5469332,-5.7171078,-13.404559099999998,-5.407920400000001,4.8394842,-3.7306426
19256,10:52:26.059000,8.230911299999999,-5.626132,-12.801245699999999,-5.4812240999999995,5.1766815,-3.9395583
19257,10:52:26.069000,7.9508018,-4.601458099999999,-11.1828346,-5.4812240999999995,5.1766815,-3.9395583
19258,10:52:26.079000,7.5557756,-3.2296392999999997,-9.236433,-4.4232062999999995,5.3794889,-3.967658
19259,10:52:26.090000,6.626865400000001,-1.4436415,-7.491135099999999,-3.7524772000000004,5.3941493,-3.9859841
19260,10:52:26.099000,4.8504438,0.3806617,-6.0905871,-3.7524772000000004,5.3941493,-3.9859841
19261,10:52:26.109000,3.3230089999999994,2.3845222,-4.4602059999999994,-2.4403398,5.025187,-3.7843988
19262,10:52:26.118000,1.5944698,4.5966697,-2.8681302000000004,-2.4403398,5.025187,-3.7843988
19263,10:52:26.127000,-0.16758689999999998,6.7082644,-1.235355,-1.9027789000000002,4.646451,-3.6219087
19264,10:52:26.145000,-0.5458545,8.1159954,-0.5219135,-1.8368053,3.0997415,-3.4581969
19265,10:52:26.148000,0.6224656999999999,8.491867999999998,-0.13406949999999998,-1.8368053,3.0997415,-3.4581969
19266,10:52:26.162000,2.0972304,8.307522800000001,-0.7948408,-2.0664903999999997,1.5273757,-3.5840351999999998
19267,10:52:26.165000,2.8274305,7.6970277000000005,-0.0813994,-2.0970337,1.2011738,-3.4875182999999996
19268,10:52:26.175000,2.0445604,7.8550382,-0.0215469,-1.9748609000000001,1.1681871000000001,-3.2908199000000002
19269,10:52:26.185000,2.5185918999999997,8.1902122,1.237749,-1.9748609000000001,1.1681871000000001,-3.2908199000000002
19270,10:52:26.194000,1.0342506999999999,10.3449011,0.5147311999999999,-1.8025968999999997,1.1694088,-3.078239
19271,10:52:26.205000,-0.7589293,12.068652199999999,-0.16279870000000002,-1.5875726000000001,1.119318,-2.875432
19272,10:52:26.215000,-0.7445647,12.0159817,0.3495384,-1.3310094,1.0631184999999999,-2.5858822
19273,10:52:26.225000,0.8570873999999999,10.9003325,0.1268872,-1.3933176,0.0930653,-2.6274208999999997
19274,10:52:26.235000,2.8513715,10.0193033,0.0933698,-1.3933176,0.0930653,-2.6274208999999997
19275,10:52:26.244000,3.7084589,9.7200413,-0.07661119999999999,-1.3566657,-0.3553094,-2.582217
19276,10:52:26.256000,3.2033041,9.923539199999999,-0.3447502,-1.1282023,-0.3553094,-2.4539353999999998
19277,10:52:26.264000,2.497045,9.650611900000001,-0.5051548,-1.1282023,-0.3553094,-2.4539353999999998
19278,10:52:26.273000,2.5473211,9.5356951,-0.6248598000000001,-0.9754862,-0.203815,-2.4356093
19279,10:52:26.283000,2.8250365,9.0257521,-0.5290958,-0.9754862,-0.203815,-2.4356093
19280,10:52:26.293000,2.8154602000000004,8.7169142,-0.6248598000000001,-0.8911868000000001,-0.22702779999999997,-2.5480084
19281,10:52:26.306000,2.5185918999999997,8.499051099999999,-0.8020231,-0.8630870999999999,-0.1683848,-2.5431216
19282,10:52:26.312000,2.2959406,8.573267900000001,-0.7397765000000001,-0.8630870999999999,-0.1683848,-2.5431216
19283,10:52:26.322000,2.1953886000000002,8.7959194,-0.7421706,-0.8362089,-0.113407,-2.5602257
19284,10:52:26.331000,2.0206193999999997,8.8270416,-0.5147311999999999,-0.8239917,-0.0901942,-2.5919907
19285,10:52:26.341000,1.6854455000000002,8.496656399999999,-0.6248598000000001,-0.948608,-0.020555599999999997,-2.5871037999999995
19286,10:52:26.351000,1.4364593,7.893343400000001,-0.5721896,-0.948608,-0.020555599999999997,-2.5871037999999995
19287,10:52:26.360000,1.309572,7.7473035,-0.5458545,-1.0695593,0.0209832,-2.5712214
19288,10:52:26.372000,1.1036795,7.687450900000001,-0.5003666,-1.2100582,0.028313599999999998,-2.5272391
19289,10:52:26.380000,0.7828703,7.5102877999999995,-0.533884,-1.2100582,0.028313599999999998,-2.5272391
19290,10:52:26.391000,0.45248469999999996,7.1846905,-0.5314899000000001,-1.3407832,0.0344222,-2.401401
19291,10:52:26.399000,0.22025709999999998,6.6101065000000006,-0.5482486,-1.3407832,0.0344222,-2.401401
19292,10:52:26.409000,0.0861876,6.217474500000001,-0.5362781,-1.4311912,0.0124311,-2.3268754
19293,10:52:26.418000,0.0861876,5.7817483,-0.3902381,-1.4898341999999998,-0.0217773,-2.2596803
19294,10:52:26.428000,0.1005521,5.499245200000001,-0.265745,-1.5203773999999999,-0.0596509,-2.183933
19295,10:52:26.439000,-0.0502761,5.2789874,-0.2777155,-1.526486,-0.07308989999999999,-1.999452
19296,10:52:26.448000,-0.2489863,5.317293599999999,-0.08379349999999999,-1.526486,-0.07308989999999999,-1.999452
19297,10:52:26.458000,-0.5314899000000001,5.3364458,0.0813994,-1.4397433000000002,-0.0291077,-1.8210794999999997
19298,10:52:26.476000,-0.895393,4.9940901,0.42854369999999997,-1.4397433000000002,-0.0291077,-1.8210794999999997
19299,10:52:26.489000,-0.9432749,4.8719912,0.6895005,-1.3041314,-0.0107817,-1.5987247
19300,10:52:26.496000,-1.1252263999999998,4.950995900000001,0.9696100000000001,-1.3041314,-0.0107817,-1.5987247
19301,10:52:26.507000,-1.5130703,5.2765937,1.091709,-1.0377944,0.0478613,-1.4655561000000001
19302,10:52:26.516000,-1.9631610000000002,5.757807700000001,1.3359071000000002,-1.0377944,0.0478613,-1.4655561000000001
19303,10:52:26.525000,-2.4156458,6.514342299999999,1.5633465,-0.8875216,0.0722959,-1.3910307
19304,10:52:26.539000,-2.7196963,7.199055199999999,1.7285392,-0.6211846,0.0063225,-1.299401
19305,10:52:26.545000,-2.9255888,7.754486099999999,2.0110431,-0.6211846,0.0063225,-1.299401
19306,10:52:26.556000,-2.7651839,7.708998200000001,2.8465835999999998,-0.5894196,-0.17205,-1.3238356000000002
19307,10:52:26.564000,-3.1386635,7.811944,2.1858122000000004,-0.5894196,-0.17205,-1.3238356000000002
19308,10:52:26.574000,-3.7635233,8.1543007,2.7340607999999995,-0.6248497,-0.036438099999999994,-1.2285407
19309,10:52:26.583000,-4.2040377,8.2548523,3.0644464,-0.6248497,-0.036438099999999994,-1.2285407
19310,10:52:26.593000,-4.5176644,8.4583511,3.2152746,-0.5820892,-0.07186820000000001,-1.1198068
19311,10:52:26.604000,-4.529635,8.0776892,3.9023809000000003,-0.5319983,-0.1683848,-1.2395363000000001
19312,10:52:26.612000,-4.9869075,8.417651199999998,4.1346083,-0.5319983,-0.1683848,-1.2395363000000001
19313,10:52:26.621000,-5.2622290000000005,8.3099174,4.6182165,-0.4977899,-0.16105450000000002,-1.1808931999999999
19314,10:52:26.631000,-5.5327621,8.130359599999998,4.9725428,-0.488016,-0.1793804,-1.0269554
19315,10:52:26.640000,-5.774566200000001,7.811944,5.257441,-0.5222244,-0.20137149999999998,-0.9389909
19316,10:52:26.653000,-5.9613061,7.3522773,5.573462,-0.6517278000000001,-0.24901900000000002,-0.708084
19317,10:52:26.660000,-6.1001635,6.5526485,5.901453500000001,-0.6517278000000001,-0.24901900000000002,-0.708084
19318,10:52:26.671000,-6.3419676,5.4465747,5.934970900000001,-0.8728608,-0.23435820000000004,-0.35866929999999997
19319,10:52:26.681000,-6.6891122,4.4673886,5.7865367,-0.8728608,-0.23435820000000004,-0.35866929999999997
19320,10:52:26.690000,-6.8303633,3.6126949999999995,5.796113,-0.9840382,-0.2685667,0.028618900000000003
19321,10:52:26.702000,-6.8303633,2.8274305,5.776960400000001,-0.9021823,-0.3137707,0.12391379999999999
19322,10:52:26.709000,-6.866274799999999,2.3294580000000003,5.5638857,-0.9021823,-0.3137707,0.12391379999999999
19323,10:52:26.721000,-6.8519106,1.8410618000000003,5.5926147,-0.5564328000000001,-0.3308749,0.27174299999999996
19324,10:52:26.729000,-6.8950043,1.6591103999999999,5.4393926,-0.5564328000000001,-0.3308749,0.27174299999999996
19325,10:52:26.739000,-6.9955564,1.5082823,5.3603868,-0.2253442,-0.203815,0.3071732
19326,10:52:26.747000,-7.0314679,1.7644508,5.2646232,-0.2253442,-0.203815,0.3071732
19327,10:52:26.757000,-6.997950599999999,2.300729,5.4250278,-0.059189,-0.1280678,0.31816880000000003
19328,10:52:26.770000,-6.7848759,2.9375593999999996,5.5830383,0.2853387,-0.0767551,0.32672090000000004
19329,10:52:26.777000,-6.452096,3.610301,5.647678900000001,0.2853387,-0.0767551,0.32672090000000004
19330,10:52:26.787000,-6.092981299999999,4.0508150999999994,5.6045852,0.49303270000000005,-0.0449902,0.3450468
19331,10:52:26.801000,-5.8128719,4.3357129,5.4082689,0.50525,0.003879,0.3780335
19332,10:52:26.806000,-5.5064268,4.606246,5.3699636,0.50525,0.003879,0.3780335
19333,10:52:26.817000,-5.2765937,4.8097444000000005,5.331657900000001,0.4710416,0.1553735,0.4305679
19334,10:52:26.825000,-5.0683069000000005,5.2885642,5.2981405,0.4710416,0.1553735,0.4305679
19335,10:52:26.836000,-4.9318433,5.7554135,5.3747516,0.5345715,0.2799899,0.42568100000000003
19336,10:52:26.845000,-4.747498,6.0881929,5.3244753,0.5345715,0.2799899,0.42568100000000003
19337,10:52:26.854000,-4.752286,6.3443613,5.2526526,0.5736668,0.3056462,0.4134637
19338,10:52:26.872000,-4.9390254,6.4784312,5.0012726999999995,0.5260194,0.40460630000000003,0.43301130000000004
19339,10:52:26.874000,-5.1544943,6.7561464,4.9677548,0.5186890000000001,0.4632493,0.4122419
19340,10:52:26.884000,-5.365175700000001,7.0769558,4.800168,0.5492322,0.47668829999999995,0.3694814
19341,10:52:26.893000,-5.429815799999999,7.7209687,4.611033900000001,0.5492322,0.47668829999999995,0.3694814
19342,10:52:26.902000,-5.2502584,8.2476702,4.6924334000000005,0.6274229,0.4302626,0.3071732
19343,10:52:26.916000,-5.1497064,8.9443531,4.577516999999999,0.7373786,0.3422981,0.2204304
19344,10:52:26.922000,-5.1185832,9.5356951,4.479359099999999,0.8473343000000001,0.2225686,0.095814
19345,10:52:26.933000,-5.1090064,9.969026600000001,4.917479,0.7911347,0.1883602,0.0579404
19346,10:52:26.941000,-5.1329474,10.0193033,4.4602059999999994,0.7911347,0.1883602,0.0579404
19347,10:52:26.951000,-4.8815675,9.7918644,4.2543135,0.6518575,0.17736459999999998,-0.0055896
19348,10:52:26.971000,-5.513609400000001,7.627598299999999,3.9311101,-0.06163250000000001,0.4314843,0.0066277
19349,10:52:26.983000,-5.875118700000001,6.6819296,3.6773357000000004,-0.2717699,0.44858859999999995,0.2155435
19350,10:52:26.989000,-6.0714345000000005,5.8128719,3.5097487000000003,-0.2717699,0.44858859999999995,0.2155435
19351,10:52:27.001000,-6.119316599999999,5.5471268,3.4020143,-0.3450737,0.3447415,0.2595257
19352,10:52:27.009000,-5.9469414,5.5543089000000005,3.3349794999999998,-0.3450737,0.3447415,0.2595257
19353,10:52:27.020000,-5.5279741,5.6165557,3.4451079,-0.1679229,0.0441961,0.2937342
19354,10:52:27.031000,-5.0515485,5.6045852,3.7323998999999994,-0.1679229,0.0441961,0.2937342
19355,10:52:27.037000,-4.7498922,5.5207915000000005,3.7180352,-0.1068364,-0.0462119,0.3071732
19356,10:52:27.049000,-4.6924334000000005,5.350810500000001,3.7347938999999997,-0.0872888,0.022205000000000003,0.40002459999999995
19357,10:52:27.058000,-4.8648086,5.2119532,3.6845181000000005,-0.0872888,0.022205000000000003,0.40002459999999995
19358,10:52:27.068000,-5.08746,5.0730948,3.610301,-0.1569273,0.243338,0.5698449999999999
19359,10:52:27.077000,-5.097035900000001,4.900720099999999,3.8161936,-0.1569273,0.243338,0.5698449999999999
19360,10:52:27.087000,-5.4465747,5.0204248,3.5049605,-0.1789185,0.32275040000000005,0.6223794
19361,10:52:27.100000,-5.726684099999999,5.314899,3.4762315999999998,-0.1557056,0.4131584,0.7433306
19362,10:52:27.106000,-5.669226200000001,5.4082689,3.4546845,-0.1557056,0.4131584,0.7433306
19363,10:52:27.119000,-5.4753041,5.4465747,3.4546845,-0.0946192,0.3410763,0.8911598
19364,10:52:27.126000,-5.5710678,5.6716199000000005,3.2152746,-0.0946192,0.3410763,0.8911598
19365,10:52:27.135000,-5.5686735999999994,6.006794,3.1290869999999997,-0.0445282,0.3459632,1.0060023999999999
19366,10:52:27.145000,-5.429815799999999,6.310844400000001,3.1673927,0.031219,0.35940229999999995,1.1868185
19367,10:52:27.154000,-5.1808295,6.4736428,3.0213525000000003,0.0947489,0.3459632,1.3627474
19368,10:52:27.167000,-4.6589160000000005,6.456884400000001,3.1482398999999996,0.10818789999999999,0.3032027,1.7720268
19369,10:52:27.174000,-4.6565218,6.370697,3.153028,0.10818789999999999,0.3032027,1.7720268
19370,10:52:27.185000,-4.4817529,6.1648045,3.1482398999999996,0.1411746,0.288542,2.204519
19371,10:52:27.202000,-4.266284,5.9541235,3.2056982999999994,0.1411746,0.288542,2.204519
19372,10:52:27.203000,-4.0292683,5.6285262000000005,3.2176687999999998,0.1411746,0.288542,2.204519
19373,10:52:27.218000,-3.8928044,5.0587306,3.1626046000000003,0.3012212,0.0845132,2.5502683999999998
19374,10:52:27.221000,-3.7778878,4.4673886,3.0955698,0.3012212,0.0845132,2.5502683999999998
19375,10:52:27.230000,-3.3373737,4.1322145,2.8848889,0.5834406999999999,-0.0388815,2.7677364
19376,10:52:27.242000,-2.9112239,4.0532093,2.7603958,0.5834406999999999,-0.0388815,2.7677364
19377,10:52:27.251000,-2.8082778,3.9047748999999996,2.5353506,0.7618132,-0.1415068,2.8385966000000002
19378,10:52:27.264000,-2.7747604999999997,4.3309245,2.2600293,1.0281502,-0.2465755,2.9045701
19379,10:52:27.271000,-2.1858122000000004,4.390777099999999,1.6543223000000002,1.2798264,-0.41028729999999997,3.0194125
19380,10:52:27.281000,-1.4268829,4.6565218,1.4867353,1.6707797999999998,-0.9906088,3.2100023999999996
19381,10:52:27.291000,-0.6966828,5.5710678,1.4220946,1.6707797999999998,-0.9906088,3.2100023999999996
19382,10:52:27.300000,-0.047882,6.3419676,1.4436415,1.7917311000000002,-1.292376,3.297967
19383,10:52:27.310000,0.3184151,6.827969599999999,0.6990768,1.8406003,-1.5489389999999998,3.3187363
19384,10:52:27.319000,0.49557840000000003,6.8471227,0.4069968,1.7563008999999998,-1.7725155,3.3859315000000003
19385,10:52:27.330000,0.7804762,6.2845092000000005,0.11252260000000001,1.4997377,-2.2074513,3.5484214
19386,10:52:27.339000,0.9767923000000001,5.3364458,-0.3208092,1.4997377,-2.2074513,3.5484214
19387,10:52:27.349000,1.2999957,4.1417909,-0.0215469,1.3274739,-2.6130655,3.6705945
19388,10:52:27.359000,1.6830512999999998,3.8233757000000006,0.4189673,1.3274739,-2.6130655,3.6705945
19389,10:52:27.368000,1.7405096999999998,4.699616000000001,0.31362690000000004,1.3897821000000001,-2.8158727000000003,3.7243505
19390,10:52:27.384000,1.9871020000000001,4.9246612,-0.8594815,1.3323607,-3.0846531,3.3089623
19391,10:52:27.387000,2.6957552000000002,4.7451034000000005,-1.1707143,1.3323607,-3.0846531,3.3089623
19392,10:52:27.397000,3.2583685,5.037183799999999,-2.5497153,1.2896003,-3.4792717000000004,2.9986432
19393,10:52:27.407000,4.242342900000001,5.082671599999999,-3.8305580999999997,1.3690127,-4.0547061,3.035295
19394,10:52:27.416000,5.6764078,4.611033900000001,-5.0060606,1.5156201999999999,-4.5983758,3.1941199
19395,10:52:27.426000,7.2948189,4.043633,-6.5095544,1.60725,-4.980776799999999,3.2063372
19396,10:52:27.436000,8.5756617,3.2631563999999997,-8.1495123,1.6414583999999999,-5.1261625,3.1061554
19397,10:52:27.447000,9.7104654,3.3421616999999997,-8.9850531,1.9823209,-4.9746685,3.0670599999999997
19398,10:52:27.455000,10.2611074,3.2823095,-9.4135962,1.9823209,-4.9746685,3.0670599999999997
19399,10:52:27.465000,9.8373518,3.6414242,-10.5579748,2.5052211,-4.894033900000001,2.7555188999999998
19400,10:52:27.478000,9.2699499,2.9519238,-12.3056679,3.287128,-4.4749808,2.3706741
19401,10:52:27.484000,8.781554199999999,2.1953886000000002,-14.26404,4.2877245,-4.1133489999999995,2.0175943
19402,10:52:27.495000,9.0401173,1.5609524,-15.461090099999998,5.9981456,-4.0705886,2.4598606
19403,10:52:27.504000,10.1605549,0.6823182,-15.5017891,5.9981456,-4.0705886,2.4598606
19404,10:52:27.514000,12.1069574,0.4620611,-15.0756397,6.740957300000001,-3.7908127,2.896018
19405,10:52:27.523000,13.469200099999998,0.9217280000000001,-14.8769302,6.740957300000001,-3.7908127,2.896018
19406,10:52:27.532000,12.782093,0.9049693000000001,-15.142675400000002,6.7006402000000005,-2.8293116,3.1293683
19407,10:52:27.548000,10.2156191,0.6248598000000001,-16.653350800000002,6.7861614,-2.0241919,3.2405455
19408,10:52:27.552000,7.8550382,-0.1197049,-18.2669735,6.7861614,-2.0241919,3.2405455
19409,10:52:27.561000,6.466460700000001,-1.0390389000000002,-19.533451100000004,6.7861614,-1.3021498,3.2613151
19410,10:52:27.572000,6.6699591,-2.0924423,-19.9476299,6.4905028,-0.7731409,3.2258849
19411,10:52:27.591000,10.2228022,-2.5473211,-15.844145800000002,3.5241434999999997,0.1321606,2.7188671
19412,10:52:27.600000,12.791669800000001,-2.7436373,-10.7518969,3.5241434999999997,0.1321606,2.7188671
19413,10:52:27.612000,14.1610937,-5.8176599,-7.5031056,2.1777976000000003,1.31846,1.9076388
19414,10:52:27.620000,14.3574104,-4.8456559,-13.277671799999998,2.1777976000000003,1.31846,1.9076388
19415,10:52:27.630000,14.0725117,-1.0222802,-27.826610600000002,1.4276556999999999,1.3807681,1.9467342
19416,10:52:27.639000,15.159433400000001,4.436265000000001,-34.5444527,0.460046,-0.0950811,1.938182
19417,10:52:27.649000,16.303812,8.664242699999999,-29.7969532,2.5088863,-0.5972118000000001,-0.5651417
19418,10:52:27.661000,16.069191,9.6386423,-18.9875984,2.7336845000000003,0.32397209999999993,-1.3372746000000002
19419,10:52:27.668000,13.737339000000002,6.1097398,-4.457811799999999,2.7336845000000003,0.32397209999999993,-1.3372746000000002
19420,10:52:27.678000,8.427228,2.0637131,0.5937365,-1.9504261000000003,1.7081916000000001,-1.7172325000000002
19421,10:52:27.688000,3.809011,-0.8139936,-6.2725387,-1.9504261000000003,1.7081916000000001,-1.7172325000000002
19422,10:52:27.697000,3.4546845,-2.619144,-14.9774818,-5.0206323,2.0062935,-2.2279153
19423,10:52:27.710000,5.8511777,-4.9557843,-19.8063774,-6.6345367,1.3880985000000001,-2.6811769
19424,10:52:27.717000,9.3800793,-6.6412301,-20.309139300000002,-6.3633127,0.5878656999999999,-2.6530771
19425,10:52:27.727000,13.2082434,-5.6572556,-17.4912853,-3.8404417,-0.3736354,-1.7404453999999998
19426,10:52:27.736000,15.0205755,-3.4211669000000002,-16.2200184,-3.8404417,-0.3736354,-1.7404453999999998
19427,10:52:27.746000,15.054093400000001,-1.5537702,-15.583189,-3.4604837999999996,1.0863314,-2.8742104
19428,10:52:27.756000,12.8730688,0.21068070000000003,-15.152251199999998,-3.4604837999999996,1.0863314,-2.8742104
19429,10:52:27.765000,10.328142199999998,2.0158311999999996,-14.3741693,-3.3077676,1.6434400000000002,-3.2468376
19430,10:52:27.777000,9.4830246,2.7580017999999997,-13.260912900000001,-3.3835148999999998,2.4057992,-3.1063387000000002
19431,10:52:27.785000,10.510093699999999,2.1546887999999997,-12.387066800000001,-3.3835148999999998,2.4057992,-3.1063387000000002
19432,10:52:27.794000,11.5251913,0.7062590999999999,-12.6240826,-4.9057894,2.7857568,-3.7587422999999993
19433,10:52:27.804000,11.656867,-1.1587437,-12.4134016,-4.9057894,2.7857568,-3.7587422999999993
19434,10:52:27.814000,10.5292463,-2.3605812000000004,-11.869941699999998,-5.6913614,3.083859,-3.7208687999999994
19435,10:52:27.826000,9.0736341,-2.7915192,-10.565157899999999,-5.6070623,4.1809721,-3.5596004
19436,10:52:27.833000,7.5485935,-2.3414285,-9.2867088,-5.6070623,4.1809721,-3.5596004
19437,10:52:27.843000,6.059464,-0.42854369999999997,-6.7369938,-3.9552843999999996,4.6476727,-3.3738976000000003
19438,10:52:27.852000,4.3045893,2.2911525,-4.2160082,-3.9552843999999996,4.6476727,-3.3738976000000003
19439,10:52:27.863000,2.7005434,5.018031099999999,-2.3701577,-2.9168141,4.723420099999999,-3.1771991
19440,10:52:27.874000,1.4388534,6.9237337,-1.041433,-1.9540913,4.683103099999999,-3.0648
19441,10:52:27.881000,0.48121379999999997,7.8143387,-0.5530368,-1.3432267,4.5047302,-2.9817223999999998
19442,10:52:27.893000,0.28489770000000003,7.203843099999999,-0.33517379999999997,-1.5167123,3.9781649,-2.6579642000000003
19443,10:52:27.901000,0.9576395000000001,5.429815799999999,-0.11252260000000001,-1.5167123,3.9781649,-2.6579642000000003
19444,10:52:27.911000,1.6782633000000002,3.6773357000000004,-0.23222759999999998,-2.2155416,3.3477523000000002,-2.3904054
19445,10:52:27.921000,1.6926279,3.5432663,-0.28968590000000005,-2.2155416,3.3477523000000002,-2.3904054
19446,10:52:27.930000,1.2305667,4.4219003,0.6392244,-1.9369872,3.155941,-2.3244319
19447,10:52:27.943000,0.7158355,5.678801999999999,1.9823137999999998,-0.2998697,2.6733577,-2.2804496
19448,10:52:27.949000,0.5386721999999999,6.725023299999999,3.6222714999999996,-0.2998697,2.6733577,-2.2804496
19449,10:52:27.959000,1.0797385,9.143062599999999,1.8314854999999999,0.3134385,2.3508213,-2.2535717
19450,10:52:27.968000,2.0900483,10.048031800000002,2.1762357000000003,0.3733032,1.7558391,-2.130177
19451,10:52:27.978000,2.4635274,10.522064199999999,3.9071693,0.5406801999999999,1.7411782999999998,-2.2767847000000003
19452,10:52:27.987000,0.6200716,12.377491000000001,2.5066216,0.5028064999999999,1.7460651000000003,-2.1020772
19453,10:52:27.996000,-1.4771589,12.9808025,2.5521092,0.5028064999999999,1.7460651000000003,-2.1020772
19454,10:52:28.008000,-2.5975973999999997,12.628871,2.2289058999999996,-0.2143486,1.2549299999999999,-1.8039752
19455,10:52:28.016000,-2.0445604,12.3966427,1.9990726000000003,-0.2143486,1.2549299999999999,-1.8039752
19456,10:52:28.027000,0.0790053,11.7430544,1.8314854999999999,-0.7677921,-0.2563494,-1.9615784
19457,10:52:28.037000,2.2217238,10.687256800000002,1.8410618000000003,-0.7677921,-0.2563494,-1.9615784
19458,10:52:28.046000,3.2631563999999997,9.787075999999999,1.5968639,-0.9021823,-0.7987972,-2.0642037
19459,10:52:28.057000,3.0907815,8.9922352,1.1180441,-0.9864816999999999,-0.9515134,-2.0629817999999998
19460,10:52:28.065000,2.4276164000000002,8.618755300000002,0.6344361999999999,-1.0402378,-0.831784,-2.0385473000000003
19461,10:52:28.075000,2.0924423,8.7504311,0.3184151,-1.0622288999999998,-0.6448593,-2.0605385
19462,10:52:28.094000,2.9902293999999996,8.1064186,0.122099,-1.0414596,-0.5678904,-2.1265118
19463,10:52:28.108000,3.4139847999999997,8.695366900000002,0.2633509,-0.9742644,-0.5996553000000001,-2.2816715
19464,10:52:28.114000,3.6510005,9.5093603,0.27053309999999997,-0.9742644,-0.5996553000000001,-2.2816715
19465,10:52:28.125000,3.3684969,9.1981268,-0.0622466,-1.0206901,-0.23191479999999998,-2.3427578999999996
19466,10:52:28.133000,2.8968594,8.491867999999998,-0.2034984,-1.0206901,-0.23191479999999998,-2.3427578999999996
19467,10:52:28.143000,2.5138037,7.706604,-0.3279915,-1.0939938999999999,-0.0352163,-2.2743411
19468,10:52:28.155000,2.0469543999999997,7.292425200000001,-0.23462170000000002,-1.1538587,0.1199433,-2.2462413
19469,10:52:28.162000,1.5130703,7.3642473,-0.14125179999999998,-1.1636323999999998,0.3703979,-2.247463
19470,10:52:28.173000,1.1084677,7.7185745,0.1149167,-1.1465281999999999,0.4302626,-2.2645671000000003
19471,10:52:28.182000,0.8163876999999999,7.881372900000001,0.3830558,-1.1465281999999999,0.4302626,-2.2645671000000003
19472,10:52:28.191000,0.4692433,7.8382797,0.4740316,-1.1489717,0.47668829999999995,-2.2621238
19473,10:52:28.201000,0.11252260000000001,7.5078936,0.8379346,-1.1489717,0.47668829999999995,-2.2621238
19474,10:52:28.211000,-0.1556164,7.270877799999999,0.9313045,-1.1648542,0.5267791999999999,-2.1668289
19475,10:52:28.223000,-0.5410663,6.9955564,1.0821326,-1.1672976000000002,0.5463269000000001,-2.1045208
19476,10:52:28.230000,-0.9791864,6.801634299999999,1.2449313,-1.1672976000000002,0.5463269000000001,-2.1045208
19477,10:52:28.241000,-1.4292768999999999,6.6340475,1.3215424999999998,-1.1367544,0.554879,-1.9017136000000001
19478,10:52:28.249000,-1.7836037,6.5981359,1.3766067,-1.1367544,0.554879,-1.9017136000000001
19479,10:52:28.259000,-2.2169354,6.626865400000001,1.4699767,-1.0793331,0.5353313000000001,-1.7880927
19480,10:52:28.273000,-2.4276164000000002,6.6891122,1.4867353,-0.8972955,0.4119366,-1.5803988000000002
19481,10:52:28.279000,-2.4347985,6.8064227,1.5130703,-0.7629051,0.2799899,-1.4960995000000001
19482,10:52:28.292000,-2.4084632000000004,7.0314679,1.5417996999999999,-0.7629051,0.2799899,-1.4960995000000001
19483,10:52:28.300000,-2.449163,7.4049473,1.5489819,-0.4733553,0.0771828,-1.3360528999999999
19484,10:52:28.308000,-2.6311145000000002,7.811944,1.4388534,-0.4733553,0.0771828,-1.3360528999999999
19485,10:52:28.317000,-3.0261407000000005,8.0274134,1.5657406,-0.37073,0.0637438,-1.3055097
19486,10:52:28.326000,-3.9813862,8.587632199999998,1.065374,-0.3536258,0.08940010000000001,-1.2932924
19487,10:52:28.337000,-4.220796099999999,7.9388312999999995,1.7764213,-0.4501424,-0.1634979,-1.4118001
19488,10:52:28.347000,-4.5200586,8.2476702,2.4659216,-0.4501424,-0.1634979,-1.4118001
19489,10:52:28.356000,-4.4841470999999995,9.066452,2.5305624,-0.4721335,-0.7804713000000001,-1.2932924
19490,10:52:28.366000,-3.7563410000000004,9.641036,2.3486105999999998,-0.4721335,-0.7804713000000001,-1.2932924
19491,10:52:28.376000,-2.645479,10.1078854,2.3797342999999995,-0.40616009999999997,-1.3009281000000001,-1.2908488999999999
19492,10:52:28.389000,-1.6351695,10.3329296,2.667026,-0.41837749999999996,-1.9130144,-1.3983611
19493,10:52:28.395000,-1.1755025,10.2275896,3.0931754000000002,-0.5381069,-1.8470411,-1.2847402
19494,10:52:28.406000,-1.4819472,9.8948097,3.3254032,-0.5381069,-1.8470411,-1.2847402
19495,10:52:28.414000,-2.3581872,9.377684599999998,3.299068,-0.7543529999999999,-1.6417906000000002,-1.1173633
19496,10:52:28.423000,-3.2559742999999997,8.6977606,2.9758646,-1.0206901,-1.3559058000000002,-0.9744209999999999
19497,10:52:28.433000,-3.7467644,8.017836599999999,2.8896773,-1.2894706,-1.0956774999999999,-0.8962303
19498,10:52:28.443000,-3.8568931000000006,7.5102877999999995,3.2942801,-1.5044948999999999,-0.9441831,-0.8644654
19499,10:52:28.455000,-3.7898582999999997,7.1463852,3.7108531000000005,-1.6608763,-0.8073493,-0.8498046
19500,10:52:28.463000,-3.8209815000000003,6.686717999999999,4.065179799999999,-1.6608763,-0.8073493,-0.8498046
19501,10:52:28.473000,-4.1417909,6.3515439,4.505693900000001,-1.5985681,-0.4359436,-0.7141926
19502,10:52:28.482000,-4.575122400000001,6.0666461,4.603851799999999,-1.5985681,-0.4359436,-0.7141926
19503,10:52:28.492000,-5.018031099999999,5.738654599999999,4.5631518,-1.5203773999999999,-0.26245799999999997,-0.5260463000000001
19504,10:52:28.504000,-5.142523799999999,5.2885642,4.7211623,-1.4397433000000002,-0.0254425,-0.2988046
19505,10:52:28.512000,-5.2718053,4.900720099999999,4.9198732000000005,-1.4397433000000002,-0.0254425,-0.2988046
19506,10:52:28.523000,-5.429815799999999,4.611033900000001,5.257441,-1.3627744,0.1553735,-0.0935541
19507,10:52:28.530000,-5.5375504,4.374018700000001,5.5351567,-1.3627744,0.1553735,-0.0935541
19508,10:52:28.540000,-5.633314599999999,4.010115600000001,5.539944599999999,-1.3041314,0.2518901,0.005406
19509,10:52:28.552000,-5.5447326,3.5696013,5.3962984,-1.2393796000000001,0.3398546,0.064049
19510,10:52:28.560000,-5.4346042,3.1649985000000003,5.3412347,-1.1245371000000002,0.4033846,0.20699139999999996
19511,10:52:28.571000,-5.403481,3.1075404,5.3412347,-1.0732244,0.4082715,0.2851821
19512,10:52:28.579000,-5.4824858,3.1362693,5.4776978,-1.0732244,0.4082715,0.2851821
19513,10:52:28.589000,-5.5279741,3.1865456,5.7865367,-0.9742644,0.4498103,0.3022863
19514,10:52:28.599000,-5.539944599999999,3.1242987999999996,5.8846945999999996,-0.8410958000000001,0.5267791999999999,0.2399781
19515,10:52:28.608000,-5.5423384,2.9064360000000002,5.9541235,-0.7445792,0.5719831999999999,0.1666743
19516,10:52:28.621000,-5.5638857,2.5305624,6.0474935,-0.7384706,0.5585441999999999,0.11658339999999999
19517,10:52:28.638000,-6.1839571,2.1451125,6.3419676,-0.7824528000000001,0.6245175999999999,0.1043661
19518,10:52:28.647000,-6.4473081,2.0876541,6.602924300000001,-0.7824528000000001,0.6245175999999999,0.1043661
19519,10:52:28.657000,-6.734600099999999,2.0038607,6.4066081,-0.7018187,0.613522,0.06038380000000001
19520,10:52:28.669000,-6.796846400000001,2.1666594,6.7776933,-0.3890559,0.4632493,-0.0691195
19521,10:52:28.676000,-6.8423338000000005,2.4252219,6.7585410999999995,-0.3890559,0.4632493,-0.0691195
19522,10:52:28.686000,-6.7585410999999995,2.4467689999999997,7.3714299,-0.2436701,0.2897637,-0.17174479999999998
19523,10:52:28.695000,-6.9261274,2.1953886000000002,6.8973985,-0.2436701,0.2897637,-0.17174479999999998
19524,10:52:28.704000,-7.0865326,2.0517426,7.4743767000000005,-0.22656590000000001,0.283655,-0.2364964
19525,10:52:28.717000,-7.505499400000001,2.300729,7.361853599999999,-0.1459318,0.2787682,-0.27681350000000005
19526,10:52:28.724000,-7.8717966,2.4180398,7.5868988,-0.027424,0.22012510000000002,-0.27803520000000004
19527,10:52:28.738000,-8.1854239,2.6550555,7.5773225,0.17660479999999998,0.14071270000000002,-0.3073567
19528,10:52:28.744000,-8.403286900000001,2.8394009999999996,7.754486099999999,0.17660479999999998,0.14071270000000002,-0.3073567
19529,10:52:28.754000,-8.441592199999999,2.956712,7.8909497,0.3842988,-0.0181121,-0.36111279999999996
19530,10:52:28.764000,-8.391316400000001,2.9998057,7.926860799999999,0.3842988,-0.0181121,-0.36111279999999996
19531,10:52:28.773000,-8.408075300000002,2.7651839,7.8550382,0.45760259999999997,-0.0901942,-0.3733301
19532,10:52:28.784000,-8.3410397,2.4922566,7.8550382,0.4795937,-0.2221409,-0.27314829999999996
19533,10:52:28.792000,-8.4703207,2.3869164,7.6635098,0.4795937,-0.2221409,-0.27314829999999996
19534,10:52:28.802000,-8.5780563,2.6359026,7.6587219,0.6262012,-0.3125489,-0.1045496
19535,10:52:28.812000,-8.6355143,3.0907815,7.409735700000001,0.6262012,-0.3125489,-0.1045496
19536,10:52:28.821000,-8.4607449,3.4929900000000003,7.407341499999999,0.7911347,-0.3846309,-0.0630108
19537,10:52:28.834000,-8.1614828,3.7132473,7.4312825,1.0428109,-0.592325,0.0982574
19538,10:52:28.840000,-7.852644000000001,3.8808341,7.4312825,1.0428109,-0.592325,0.0982574
19539,10:52:28.851000,-7.6204165999999995,4.096303,7.2972131,1.0305936,-0.6631852,0.22898249999999998
19540,10:52:28.860000,-7.3834004,3.8736517,7.0721674,1.0305936,-0.6631852,0.22898249999999998
19541,10:52:28.880000,-7.2996068,3.7922525,6.8303633,1.0073808000000002,-0.677846,0.3682597
19542,10:52:28.885000,-7.0913205,3.6653652,6.564619099999999,0.9988286,-0.709611,0.45866769999999996
19543,10:52:28.889000,-6.8638811,3.5839657999999996,6.2916913,1.0061591,-0.7340456,0.5270845000000001
19544,10:52:28.901000,-6.576589599999999,3.4331373999999997,6.0714345000000005,1.0061591,-0.7340456,0.5270845000000001
19545,10:52:28.908000,-6.1959276,3.3230089999999994,5.7817483,1.0904584,-0.7792495,0.6443705
19546,10:52:28.918000,-5.8320246,3.2535803,5.602191,1.0904584,-0.7792495,0.6443705
19547,10:52:28.926000,-5.4968505,3.1649985000000003,5.4633335999999995,1.1381059,-0.8049059000000001,0.7250045999999999
19548,10:52:28.936000,-5.1066127,3.2655509,5.1305537,1.1833098,-0.8097928000000001,0.8007519000000001
19549,10:52:28.950000,-4.7355275,3.272733,4.8935379999999995,1.2749395000000001,-0.7743626,0.9192596
19550,10:52:28.956000,-4.3452892,3.3158267,4.6206107,1.2749395000000001,-0.7743626,0.9192596
19551,10:52:28.970000,-3.8209815000000003,3.3613148,4.4314770999999995,1.3714561,-0.7071675000000001,0.9815678
19552,10:52:28.976000,-3.3684969,3.3996203,4.295013,1.3714561,-0.7071675000000001,0.9815678
19553,10:52:28.985000,-3.0716287999999996,3.5935422999999993,4.2495255,1.3946691,-0.6265334,1.0133328000000001
19554,10:52:28.995000,-2.9615002,3.9742040999999997,4.1609435,1.4325426,-0.49336490000000005,1.0450978000000002
19555,10:52:29.004000,-3.0883875,4.508088099999999,3.9909625,1.5938108999999998,-0.0853072,1.0890801
19556,10:52:29.014000,-3.2272451,4.8935379999999995,4.0747561,1.6817755,0.10650430000000001,1.1135146999999999
19557,10:52:29.023000,-3.2823095,5.1185832,3.9287159,1.6817755,0.10650430000000001,1.1135146999999999
19558,10:52:29.033000,-3.1362693,5.116189,3.7132473,1.6866623,0.24455970000000002,1.1794881000000002
19559,10:52:29.044000,-2.8513715,4.7881975,3.4642611000000003,1.5913674999999998,0.3288591,1.2906654
19560,10:52:29.053000,-2.5257742000000003,4.534422900000001,3.006988,1.4423164,0.3728413,1.4103948999999998
19561,10:52:29.065000,-2.2049651000000003,4.4314770999999995,2.7819428,1.1613187,0.4265974,1.6510756000000002
19562,10:52:29.073000,-1.9583727,4.5009055,2.5640798,1.1613187,0.4265974,1.6510756000000002
19563,10:52:29.085000,-1.8219091,4.6565218,2.4084632000000004,1.0684673,0.5084532,1.8172308000000001
19564,10:52:29.092000,-1.6902337,4.771439099999999,2.1690536,1.0684673,0.5084532,1.8172308000000001
19565,10:52:29.101000,-1.4651883999999997,4.8576264,2.0469543999999997,1.0403675,0.5133402,1.8770956
19566,10:52:29.114000,-1.2856309,4.824109099999999,1.8793674999999999,0.9756159,0.48524040000000007,1.938182
19567,10:52:29.121000,-1.0294625,4.6158223,1.6112285,0.8790992,0.4327061,1.9980468999999996
19568,10:52:29.134000,-0.8522992,4.3141661,1.3383013000000001,0.7386004,0.2946506,2.1153327999999996
19569,10:52:29.141000,-0.7158355,4.3117719,1.1826848,0.7386004,0.2946506,2.1153327999999996
19570,10:52:29.150000,-0.5841601,4.512876,1.1012853,0.7947999,0.20668609999999998,2.1617584
19571,10:52:29.161000,-0.3495384,4.5894876,0.9959450000000001,1.1393275,-0.0242208,2.1690888
19572,10:52:29.170000,-0.2394099,4.7881975,0.9743982,1.3225870000000002,-0.158611,2.2081842000000003
19573,10:52:29.185000,-0.2250453,4.9964838,0.8594815,1.4936291000000002,-0.29910990000000004,2.2790446
19574,10:52:29.189000,-0.3519325,4.9031138,0.5171254,1.4936291000000002,-0.29910990000000004,2.2790446
19575,10:52:29.200000,-0.5243076,4.512876,0.2082866,1.8772521,-0.528795,2.4183216
19576,10:52:29.217000,-0.5697955,3.3014622000000005,-0.193922,1.8772521,-0.528795,2.4183216
19577,10:52:29.229000,-0.47642559999999995,3.2080922000000003,-0.35672070000000006,2.4477997000000005,-0.8024624,2.3816697999999996
19578,10:52:29.237000,-0.0263351,3.7683115,-0.4141791,3.1747289,-1.2813803999999998,2.3450179
19579,10:52:29.248000,0.557825,4.5966697,-0.5841601,3.5742342000000002,-1.6222428999999998,2.321805
19580,10:52:29.257000,1.2257784999999999,5.1808295,-0.8355404000000001,3.5742342000000002,-1.6222428999999998,2.321805
19581,10:52:29.266000,1.8027563999999998,5.990035099999999,-0.9241222,3.9028794999999996,-1.8910234000000001,2.3303571
19582,10:52:29.279000,2.2863643,6.7992406,-1.2521136,4.10813,-2.1329257,2.4781864
19583,10:52:29.285000,2.667026,7.5198641,-1.5992579,4.0849175,-2.7841077000000003,2.9913127
19584,10:52:29.296000,3.0213525000000003,7.4336767,-2.1139894,3.715955,-3.0431142,3.2063372
19585,10:52:29.305000,3.2224569,6.815999000000001,-2.7963072999999996,3.715955,-3.0431142,3.2063372
19586,10:52:29.314000,3.299068,6.466460700000001,-3.7635233,3.2431457000000004,-3.2556951,3.3627186
19587,10:52:29.326000,3.7132473,6.5334954000000005,-4.3931708,2.8973963,-3.360764,3.473896
19588,10:52:29.334000,4.3955655,6.962039,-5.0683069000000005,2.9413786,-3.563571,3.2906364999999997
19589,10:52:29.347000,5.3268695,7.270877799999999,-6.3371797,3.2749107000000004,-3.8237994,3.117151
19590,10:52:29.355000,6.4880075,7.6706924,-8.230911299999999,3.7880371,-4.2147527,3.098825
19591,10:52:29.365000,7.6228104000000005,7.9915012999999995,-9.9905739,3.7880371,-4.2147527,3.098825
19592,10:52:29.373000,8.2452765,8.2931576,-11.8723364,4.682343,-4.8964777,3.4946654
19593,10:52:29.383000,8.4463797,7.5773225,-13.3638592,4.9999928,-4.9355731,3.5740778
19594,10:52:29.395000,8.0298071,6.0738287,-14.273616800000001,5.3994985,-4.777969799999999,3.473896
19595,10:52:29.403000,6.8734574,4.1034851,-14.738072400000002,5.8063345,-4.492084999999999,3.3810443999999995
19596,10:52:29.412000,5.597403,2.2863643,-15.3270197,6.0677843000000005,-4.1842093,3.3553882000000006
19597,10:52:29.421000,4.4506296999999995,0.3758735,-16.6988392,6.0677843000000005,-4.1842093,3.3553882000000006
19598,10:52:29.429000,4.3500776,-1.5992579,-17.8312473,6.1740746,-3.9007682999999997,3.2319934
19599,10:52:29.441000,5.2430763,-3.5576307999999996,-18.2621861,6.1704097,-3.6894093,2.9375567000000005
19600,10:52:29.450000,6.2605680999999995,-5.4657273,-17.7809715,6.1068796999999995,-3.5513537000000004,2.5710377999999996
19601,10:52:29.462000,6.1480455,-7.218207400000001,-17.5056496,6.0494585,-3.3778682,2.2827097999999997
19602,10:52:29.470000,5.422633599999999,-8.7647963,-17.352428399999997,5.959050700000001,-3.0125710999999997,2.1006720000000003
19603,10:52:29.480000,4.630187,-9.935509699999999,-17.9413757,5.499680000000001,-1.8470411,1.7646965000000001
19604,10:52:29.489000,4.488935,-9.9857864,-19.0857563,5.499680000000001,-1.8470411,1.7646965000000001
19605,10:52:29.499000,5.1951947,-8.803100599999999,-20.1176128,5.1307178,-1.3107018,1.5655545
19606,10:52:29.512000,6.2102919000000005,-5.987640900000001,-20.2014065,4.1899862,-0.6839546999999999,1.5411198999999998
19607,10:52:29.519000,4.0029330000000005,-5.8032956,-32.1958389,4.1899862,-0.6839546999999999,1.5411198999999998
19608,10:52:29.530000,29.2582798,48.0184402,-55.7489853,3.9932876000000004,-1.7993936999999998,1.5887673999999998
19609,10:52:29.538000,2.0493486,4.5009055,-27.438766499999996,3.9932876000000004,-1.7993936999999998,1.5887673999999998
19610,10:52:29.548000,0.36390300000000003,-1.7357216,-12.293697400000001,0.9462943000000001,-4.356473,-1.2212104
19611,10:52:29.560000,8.2835817,-0.49557840000000003,-15.0133934,-1.6633198,-2.9514847,-1.1075895
19612,10:52:29.567000,2.8082778,0.9959450000000001,-17.043588600000003,0.3488686,0.8603113000000001,-0.17540989999999998
19613,10:52:29.578000,2.2217238,1.5585582,-13.8714085,0.7923564000000001,0.30808959999999996,-0.1338711
19614,10:52:29.587000,1.4388534,0.8355404000000001,-13.6319981,0.7923564000000001,0.30808959999999996,-0.1338711
19615,10:52:29.596000,-0.1651928,0.7134414000000001,-12.7294226,-0.6798276,0.7821206,-0.9426559999999999
19616,10:52:29.606000,-0.5458545,1.7022042000000002,-13.6128454,-0.6798276,0.7821206,-0.9426559999999999
19617,10:52:29.616000,2.3725517000000003,1.2904191999999999,-13.672698,-1.8221446,0.3765065,0.0652708
19618,10:52:29.628000,6.1025577,0.28729190000000004,-14.223341,-2.2094327999999996,0.10650430000000001,0.1190268
19619,10:52:29.635000,8.702549000000001,-1.3263308,-14.9128408,-2.2094327999999996,0.10650430000000001,0.1190268
19620,10:52:29.647000,8.7480373,-1.3861831,-17.177658100000002,-2.655364,1.412533,-0.33667820000000004
19621,10:52:29.655000,8.2069702,-4.0747561,-14.1060305,-2.655364,1.412533,-0.33667820000000004
19622,10:52:29.664000,5.853571400000001,-4.8839616999999995,-13.167543400000001,-2.7359982000000005,2.189553,-0.572472
19623,10:52:29.677000,3.2823095,-4.8408675,-13.6655159,-2.4488919,3.5578898999999997,-1.0868201000000002
19624,10:52:29.684000,1.3861831,-3.4283495000000004,-15.109156599999999,-2.4488919,3.5578898999999997,-1.0868201000000002
19625,10:52:29.697000,2.0014665000000003,-0.8211759,-14.7715893,-1.5643597,3.5322335,-1.0477246999999998
19626,10:52:29.703000,5.082671599999999,1.3885771999999998,-13.8546486,-1.5643597,3.5322335,-1.0477246999999998
19627,10:52:29.713000,8.97787,3.0405054,-12.9879856,-1.2125016000000002,3.1131804,-1.208993
19628,10:52:29.723000,11.3192987,3.4044084999999997,-12.588171,-1.3896524,2.8163002,-1.4411216
19629,10:52:29.732000,11.2905703,2.2696054,-12.4062204,-2.1153598,2.9128168,-1.6133853999999999
19630,10:52:29.743000,9.3130436,0.9217280000000001,-12.260180499999999,-3.842885,3.5065773,-2.0409908
19631,10:52:29.752000,7.2613015,0.459667,-11.7095366,-3.842885,3.5065773,-2.0409908
19632,10:52:29.761000,6.691505900000001,0.7206236999999999,-10.572339999999999,-3.9894927000000004,3.8718746,-2.758146
19633,10:52:29.780000,8.477503800000001,2.5832324,-9.4662657,-3.9894927000000004,3.8718746,-2.758146
19634,10:52:29.792000,8.7312784,3.7515528,-10.232378,-3.4360492,3.9500648999999997,-3.6194650999999998
19635,10:52:29.800000,8.479898500000001,4.7211623,-9.6386423,-3.4360492,3.9500648999999997,-3.6194650999999998
19636,10:52:29.810000,7.1272321,3.9119572999999996,-8.3506165,-3.7488120000000005,3.9952691,-3.5192832999999997
19637,10:52:29.819000,4.7642565,3.9191399,-8.216547,-3.7488120000000005,3.9952691,-3.5192832999999997
19638,10:52:29.829000,3.5025665999999998,3.6557887000000004,-8.2644291,-3.9784973,4.0001564,-3.2566116000000003
19639,10:52:29.842000,3.7108531000000005,3.7515528,-7.2110256999999995,-4.0212574,3.5847681000000002,-3.0990086
19640,10:52:29.848000,3.978992,4.390777099999999,-6.0020055999999995,-4.0212574,3.5847681000000002,-3.0990086
19641,10:52:29.862000,4.1082735,5.334052099999999,-3.9311101,-3.2136943,3.1632712000000005,-2.9805007000000003
19642,10:52:29.868000,3.153028,5.987640900000001,-2.8872831000000003,-3.2136943,3.1632712000000005,-2.9805007000000003
19643,10:52:29.877000,2.0924423,6.9237337,-1.5896816,-2.6834637999999997,3.0789718999999995,-2.8180107999999997
19644,10:52:29.887000,1.6543223000000002,7.108078999999999,-0.47642559999999995,-2.6834637999999997,3.0789718999999995,-2.8180107999999997
19645,10:52:29.897000,1.3119662,7.225389999999999,0.2777155,-2.4611092,2.7735395,-2.5687778
19646,10:52:29.908000,0.9073634,7.2445431,0.6176775,-2.3389361,2.5792847,-2.4197268
19647,10:52:29.916000,0.7613234,7.0961084,1.2281727,-2.3389361,2.5792847,-2.4197268
19648,10:52:29.925000,0.5362781,6.7657232,1.3239366000000001,-2.1849982999999997,2.3410472999999996,-2.2926669
19649,10:52:29.936000,0.6344361999999999,6.428154900000001,1.7261453000000002,-2.0444994,2.0930364,-2.1961502999999998
19650,10:52:29.945000,0.2130748,6.6244712,1.7261453000000002,-1.9052221999999999,1.814482,-2.1155162
19651,10:52:29.958000,-0.0311233,7.388188400000001,1.6902337,-1.4715083,1.268369,-1.9921216
19652,10:52:29.965000,0.459667,8.230911299999999,2.2552409,-1.4715083,1.268369,-1.9921216
19653,10:52:29.975000,0.5889483,8.7863417,1.9320377,-1.134311,0.7662382,-1.8088621999999999
19654,10:52:29.984000,1.019886,8.8007069,1.9057026000000001,-1.134311,0.7662382,-1.8088621999999999
19655,10:52:29.993000,1.1850789,8.3649807,1.4651883999999997,-1.1269805,0.5976395,-1.6610328999999997
19656,10:52:30.006000,1.1731083,8.4487743,1.0342506999999999,-1.1770715,0.5341096,-1.5083168
19657,10:52:30.013000,1.5561641000000002,8.8246479,1.3047838,-1.1453065,0.5182270999999999,-1.3751482
19658,10:52:30.027000,1.5920756,8.6810017,1.2257784999999999,-1.0182467,0.536553,-1.2554188
19659,10:52:30.032000,1.5417996999999999,8.1902122,0.9720040999999999,-1.0182467,0.536553,-1.2554188
19660,10:52:30.042000,1.649534,8.108812299999999,0.9289103000000001,-0.9877034,0.6330697,-1.1772281
19661,10:52:30.052000,1.7859976000000002,8.3170986,0.8786343000000001,-0.9877034,0.6330697,-1.1772281
19662,10:52:30.061000,1.7644508,8.83183,1.065374,-0.7653486999999999,0.6697215,-1.132024
19663,10:52:30.074000,1.7333275000000001,9.1215162,1.2784487,-0.7177011999999999,0.6917127,-1.1027025
19664,10:52:30.080000,1.7812095000000001,9.1741858,1.237749,-0.7177011999999999,0.6917127,-1.1027025
19665,10:52:30.091000,1.9966784,8.9970226,1.1419852,-0.7531313000000001,0.6917127,-1.0965938999999998
19666,10:52:30.099000,2.1642652,8.4822922,1.2257784999999999,-0.7531313000000001,0.6917127,-1.0965938999999998
19667,10:52:30.109000,1.7859976000000002,8.2356997,1.26169,-0.8154395999999999,0.6709433000000001,-1.1088111
19668,10:52:30.121000,1.5992579,8.5014448,1.3287247,-0.8362089,0.6672781,-1.1271372
19669,10:52:30.129000,2.0708954,8.4727154,1.3143603000000001,-0.8081092,0.6355130999999999,-1.1870018999999998
19670,10:52:30.141000,2.4683158,8.1638765,1.6351695,-0.9278386999999999,0.5243357,-1.3421615
19671,10:52:30.148000,1.9799197,8.1590881,1.9703432,-0.9278386999999999,0.5243357,-1.3421615
19672,10:52:30.159000,1.3837892,8.2356997,2.1618712,-0.9803729999999999,0.5524355,-1.3372746000000002
19673,10:52:30.167000,1.3191483999999998,8.4559574,2.2336943,-1.0048076,0.5842005,-1.3421615
19674,10:52:30.178000,1.5298291000000002,8.518202800000001,2.1139894,-1.0280205,0.5499921,-1.3433833
19675,10:52:30.190000,1.5944698,8.1854239,1.6854455000000002,-1.1086546,0.47668829999999995,-1.3568223
19676,10:52:30.197000,1.4388534,7.7185745,1.3718187,-1.1086546,0.47668829999999995,-1.3568223
19677,10:52:30.207000,1.4220946,7.5485935,1.3670303999999998,-1.2454882999999999,0.5072315,-1.2847402
19678,10:52:30.216000,1.4747648000000002,7.701815600000001,1.4005477,-1.2454882999999999,0.5072315,-1.2847402
19679,10:52:30.226000,1.4436415,7.9029198,1.6279871000000001,-1.2039496,0.5218923,-1.2932924
19680,10:52:30.239000,1.1228323,7.960378599999999,1.9344318,-1.039016,0.5353313000000001,-1.3275008
19681,10:52:30.245000,0.8259639999999999,8.0657187,2.1642652,-1.039016,0.5353313000000001,-1.3275008
19682,10:52:30.255000,0.8044171999999999,7.981925,2.1403244,-0.9034040999999999,0.5341096,-1.3348311000000002
19683,10:52:30.265000,0.8642696,7.7496977,2.2504527999999997,-0.9034040999999999,0.5341096,-1.3348311000000002
19684,10:52:30.274000,0.7445647,7.895737599999999,2.4778922000000003,-0.8349871999999999,0.4937925,-1.3458267
19685,10:52:30.284000,0.43333190000000005,8.240488099999999,2.449163,-0.7604616999999999,0.45836229999999994,-1.3433833
19686,10:52:30.293000,0.2130748,8.4439859,2.3653696,-0.6969316999999999,0.4253757000000001,-1.358044
19687,10:52:30.307000,-0.1604046,8.518202800000001,2.5736562999999997,-0.5833109999999999,0.3398546,-1.4154652
19688,10:52:30.313000,-0.8307523000000001,8.7695837,3.126693,-0.5833109999999999,0.3398546,-1.4154652
19689,10:52:30.323000,-1.8769734,8.9299879,3.5289016,-0.3817256,0.28609850000000003,-1.4227957
19690,10:52:30.332000,-2.4036752999999997,9.0209637,3.8329519999999997,-0.3817256,0.28609850000000003,-1.4227957
19691,10:52:30.342000,-2.6957552000000002,8.953928900000001,4.1489735,-0.2900959,0.2335641,-1.4191303999999998
19692,10:52:30.354000,-3.2344275000000002,8.872530000000001,3.9981451,-0.11783199999999999,0.07473930000000001,-1.317727
19693,10:52:30.362000,-3.809011,8.83183,3.6773357000000004,-0.11783199999999999,0.07473930000000001,-1.317727
19694,10:52:30.372000,-4.2279787,9.0042048,3.7084589,0.0190017,-0.1244026,-1.1014808
19695,10:52:30.381000,-4.220796099999999,9.597942399999999,3.7946465,0.0190017,-0.1244026,-1.1014808
19696,10:52:30.391000,-3.4139847999999997,10.5436106,3.7323998999999994,0.1191835,-0.2563494,-1.0000774
19697,10:52:30.410000,-2.0373781,11.118194599999999,3.8999867,0.2010394,-0.42616980000000004,-0.8974521000000001
19698,10:52:30.421000,-1.9320377,10.7231684,3.8473167,0.045879699999999995,-0.7597019,-0.6384454
19699,10:52:30.431000,-1.5920756,10.2395601,3.4570785,-0.0420848,-0.853775,-0.5907979999999999
19700,10:52:30.439000,-1.4197004999999998,9.6601877,3.1602101,-0.0420848,-0.853775,-0.5907979999999999
19701,10:52:30.449000,-1.3430893,9.234039300000001,2.8058836,-0.1349362,-1.0052695,-0.5407071
19702,10:52:30.458000,-0.9025753000000001,8.898864699999999,2.6215382000000003,-0.136158,-1.0553603999999999,-0.5370418
19703,10:52:30.467000,-0.5267016999999999,8.6450911,2.2815759,-0.136158,-1.0553603999999999,-0.5370418
19704,10:52:30.476000,-0.2753213,8.4703207,2.056531,-0.1080582,-1.1030078,-0.5492592
19705,10:52:30.488000,-0.0167587,8.2596407,1.9535846999999997,-0.09339739999999999,-1.1323292999999999,-0.5700286
19706,10:52:30.498000,0.1891338,8.2428818,1.8530324,-0.0946192,-1.1359946,-0.6115674
19707,10:52:30.507000,0.3926322,8.6091785,1.8123327,-0.09584089999999999,-1.1237773000000002,-0.6750973000000001
19708,10:52:30.517000,0.5386721999999999,9.178975099999999,1.8554264999999999,-0.0885105,-1.1127818,-0.734962
19709,10:52:30.526000,0.241804,9.7607412,1.745298,-0.1129451,-1.0932341,-0.8021571999999999
19710,10:52:30.537000,-0.0335174,9.866081199999998,1.6950218999999997,-0.2021314,-1.0724646999999998,-0.8498046
19711,10:52:30.546000,-0.42136140000000005,9.681735,1.5370114,-0.3450737,-1.1103382,-0.8388091000000001
19712,10:52:30.555000,-0.49797250000000004,9.1765804,3.3134327000000003,-0.49412470000000003,-1.2373981,-0.734962
19713,10:52:30.568000,-0.7397765000000001,7.881372900000001,5.7051377,-0.6517278000000001,-1.3864491,-0.5675851
19714,10:52:30.574000,-2.7292726000000003,6.9165516,4.910296400000001,-0.8924084999999999,-1.4182141000000001,-0.4160906
19715,10:52:30.585000,-3.4044084999999997,5.9948235,3.1985159,-1.2613708000000001,-1.2984846,-0.3000264
19716,10:52:30.594000,-2.9136182999999996,5.6931671999999995,2.327064,-1.3432267,-1.2728283,-0.3403434
19717,10:52:30.607000,-2.303123,6.1336808,2.2360882999999996,-0.8313219999999999,-1.3962228,-0.6555496
19718,10:52:30.614000,-1.9799197,6.576589599999999,2.7723663,-0.8313219999999999,-1.3962228,-0.6555496
19719,10:52:30.624000,-1.9057026000000001,6.7729053,3.5696013,-0.7030404,-1.3766753999999999,-0.7703922
19720,10:52:30.635000,-1.9344318,6.4736428,4.2231898,-0.7030404,-1.3766753999999999,-0.7703922
19721,10:52:30.643000,-2.1163833,6.2509917999999995,5.1904058,-0.8826345999999999,-1.3436885,-0.7923833
19722,10:52:30.652000,-2.5832324,5.9325767,5.4322099999999995,-1.1941757,-1.1934159,-0.734962
19723,10:52:30.662000,-2.8585539,4.9294496,5.530367900000001,-1.1941757,-1.1934159,-0.734962
19724,10:52:30.672000,-3.4475021,4.8097444000000005,5.7865367,-1.1538587,-1.124999,-0.7471793000000001
19725,10:52:30.685000,-4.0149035,4.9797254,6.0379171,-0.6786058,-1.1127818,-0.6323368
19726,10:52:30.690000,-4.3764124,5.6213441,6.0881929,-0.6786058,-1.1127818,-0.6323368
19727,10:52:30.705000,-4.2495255,6.3371797,6.052281400000001,0.11063139999999999,-1.1421032,-0.5785807
19728,10:52:30.711000,-3.7204294,6.7298117,5.8655419,0.11063139999999999,-1.1421032,-0.5785807
19729,10:52:30.720000,-3.2847035000000004,6.801634299999999,5.6093736,0.2511303,-1.1604292,-0.5455939999999999
19730,10:52:30.730000,-3.0165646,6.5047665,5.6524668,0.207148,-1.1384379999999998,-0.455186
19731,10:52:30.739000,-2.9399533,5.901453500000001,5.8511777,0.0275538,-1.0578039,-0.333013
19732,10:52:30.751000,-3.1602101,5.3723574,6.0020055999999995,-0.3548475,-0.831784,-0.1326494
19733,10:52:30.759000,-3.4882019,5.0012726999999995,6.0810108,-0.3548475,-0.831784,-0.1326494
19734,10:52:30.772000,-3.6557887000000004,4.8648086,6.176775,-0.2656613,-0.6020988,0.0102929
19735,10:52:30.779000,-3.7323998999999994,5.1137948,6.3730912,-0.2656613,-0.6020988,0.0102929
19736,10:52:30.788000,-3.6055129,5.3555989,6.8638811,-0.1251624,-0.5349036,0.0469448
19737,10:52:30.799000,-3.5672072999999997,5.5662794,7.167931599999999,-0.0213154,-0.45915649999999997,0.053053499999999996
19738,10:52:30.807000,-3.9598392999999996,5.736260400000001,7.5414109,0.0141148,-0.3540877,0.0518317
19739,10:52:30.818000,-4.5535760000000005,5.7218962,7.8598261,-0.027424,-0.20625839999999998,0.09337050000000001
19740,10:52:30.826000,-5.0204248,5.513609400000001,8.2763996,-0.20579650000000002,0.0735176,0.1666743
19741,10:52:30.835000,-5.2502584,5.1329474,8.503838499999999,-0.20579650000000002,0.0735176,0.1666743
19742,10:52:30.846000,-5.1736474,4.634975,8.803100599999999,-0.2998697,0.15292999999999998,0.16300910000000002
19743,10:52:30.855000,-5.0276074,4.3644419,9.1382751,-0.3817256,0.1688125,0.16423089999999999
19744,10:52:30.867000,-4.8600205999999995,4.2519193,9.4758434,-0.3047566,0.1553735,0.16300910000000002
19745,10:52:30.875000,-4.8073505999999995,4.2734666,9.5476656,-0.3047566,0.1553735,0.16300910000000002
19746,10:52:30.888000,-4.9629664,4.5918813,9.619488699999998,0.071536,0.11261289999999999,0.16423089999999999
19747,10:52:30.895000,-5.046760099999999,5.0204248,9.753558199999999,0.071536,0.11261289999999999,0.16423089999999999
19748,10:52:30.905000,-5.0515485,5.595008900000001,9.866081199999998,0.49914140000000007,-0.016890400000000003,0.19721760000000002
19749,10:52:30.916000,-5.0419722,6.0714345000000005,9.753558199999999,0.6078752,-0.08408550000000001,0.19966099999999998
19750,10:52:30.924000,-4.8097444000000005,6.1241045,9.957057,0.6078752,-0.08408550000000001,0.19966099999999998
19751,10:52:30.936000,-4.910296400000001,5.8679361,9.0137815,0.5015847999999999,-0.12684600000000001,0.2534171
19752,10:52:30.943000,-4.9438138,5.6572556,9.064058300000001,0.5015847999999999,-0.12684600000000001,0.2534171
19753,10:52:30.953000,-4.6182165,5.2335,9.1670036,0.3757467,-0.1329547,0.335273
19754,10:52:30.965000,-4.2040377,4.9079027,8.9084406,0.4172855,-0.2074802,0.3071732
19755,10:52:30.972000,-3.9622335,4.6613107000000005,8.2931576,0.4172855,-0.2074802,0.3071732
19756,10:52:30.982000,-3.8904104,4.5990634,7.8837671,0.5846624,-0.2184757,0.35970759999999996
19757,10:52:30.992000,-3.7754939,4.630187,7.6994214,0.5846624,-0.2184757,0.35970759999999996
19758,10:52:31.002000,-3.5767834,4.5846992,7.486347200000001,0.6738486,-0.20137149999999998,0.36337270000000005
19759,10:52:31.011000,-3.3637087,4.555970200000001,7.2445431,0.7605915,-0.1696066,0.35604240000000004
19760,10:52:31.020000,-3.1602101,4.632581200000001,7.1200494999999995,0.8974252,-0.131733,0.4036898
19761,10:52:31.032000,-2.9926236,4.7666507000000005,6.7872701,0.9499595,-0.07797689999999999,0.4269027
19762,10:52:31.040000,-2.8489776,4.7211623,6.399426,0.9499595,-0.07797689999999999,0.4269027
19763,10:52:31.050000,-2.7532134,4.730739099999999,6.3970318,0.99272,-0.0058948,0.43423310000000004
19764,10:52:31.070000,-2.7340607999999995,4.9294496,5.8846945999999996,1.0672455,0.20912960000000003,0.5539625
19765,10:52:31.082000,-2.4371924,4.611033900000001,5.9996114,1.0672455,0.20912960000000003,0.5539625
19766,10:52:31.088000,-2.2719998,4.201643499999999,5.906241400000001,1.0586934,0.2457815,0.5759536999999999
19767,10:52:31.103000,-2.2217238,4.0412387999999995,5.764989900000001,1.0281502,0.3178635,0.7836477
19768,10:52:31.107000,-2.1139894,3.9143515,5.3555989,1.0281502,0.3178635,0.7836477
19769,10:52:31.118000,-2.0206193999999997,4.0747561,4.6277928,1.2896003,0.36184570000000005,0.9326986999999999
19770,10:52:31.128000,-1.7955738999999997,4.4434476,4.1441851000000005,1.2896003,0.36184570000000005,0.9326986999999999
19771,10:52:31.136000,-1.4388534,4.917479,3.978992,1.4936291000000002,0.36428920000000004,0.9925634
19772,10:52:31.149000,-1.163532,5.1832242,3.5743894999999997,1.8137223000000002,0.4253757000000001,1.0793062
19773,10:52:31.156000,-0.8834224,5.499245200000001,3.4355318999999995,1.8137223000000002,0.4253757000000001,1.0793062
19774,10:52:31.165000,-0.7349883,6.0091882000000005,3.2056982999999994,1.8967998,0.5035664000000001,1.1122929
19775,10:52:31.176000,-0.6272539,6.365908599999999,2.8729186,1.8967998,0.5035664000000001,1.1122929
19776,10:52:31.185000,-0.4500906,6.5071607,2.8154602000000004,1.7709616000000001,0.5487704000000001,1.075641
19777,10:52:31.197000,-0.3615089,6.468854900000001,2.8034897,1.6500105,0.5585441999999999,1.0854149
19778,10:52:31.204000,-0.44530240000000004,6.5191312,2.5592916,1.6500105,0.5585441999999999,1.0854149
19779,10:52:31.214000,-0.435726,6.277327099999999,2.0924423,1.5449418,0.5744267,1.1049626000000001
19780,10:52:31.224000,-0.4261496,6.0738287,1.6638986,1.4655293,0.5573224,1.1098495000000002
19781,10:52:31.234000,-0.34714429999999996,5.891877200000001,1.1228323,1.3934473,0.5182270999999999,1.139171
19782,10:52:31.246000,-0.1556164,5.6979551,0.8355404000000001,1.2944871999999998,0.3936107,1.2369093999999998
19783,10:52:31.252000,0.1053403,5.5327621,0.7278060000000001,1.2944871999999998,0.3936107,1.2369093999999998
19784,10:52:31.264000,0.339962,5.48488,0.6583770999999999,1.3177,0.2494466,1.3089913
19785,10:52:31.272000,0.5554309000000001,5.5207915000000005,0.6224656999999999,1.3177,0.2494466,1.3089913
19786,10:52:31.284000,0.7661116,5.784142500000001,0.4788198,1.4826335,0.12360850000000001,1.4030645
19787,10:52:31.291000,1.0079155999999998,6.112133999999999,0.3758735,1.4826335,0.12360850000000001,1.4030645
19788,10:52:31.301000,1.3023897,6.1743803,0.2082866,1.6439018,0.0613003,1.4397165
19789,10:52:31.314000,1.5801051000000002,6.3156323,0.34714429999999996,1.8357133999999997,-0.009559999999999999,1.464151
19790,10:52:31.320000,1.8051505,6.428154900000001,0.6416184,1.9725471,-0.0706465,1.5166853999999999
19791,10:52:31.330000,1.7883917,6.4856133,1.1611378,2.0116425,-0.1146287,1.5851022
19792,10:52:31.339000,1.3550598999999999,6.574194900000001,1.4651883999999997,1.9578862000000001,-0.1036332,1.658406
19793,10:52:31.349000,0.6966828,6.514342299999999,1.5465877000000001,1.8393785,-0.0291077,1.7500356
19794,10:52:31.361000,0.3447502,6.2342329,1.4412475,1.7294228999999999,0.05519169999999999,1.8331133000000002
19795,10:52:31.369000,0.1867397,5.8009014,1.0366447,1.6487886999999999,0.0796262,1.9051953999999998
19796,10:52:31.383000,0.27053309999999997,5.168858999999999,0.6703475999999999,1.4838552,0.0124311,2.0994502999999995
19797,10:52:31.389000,0.4548787,4.464994,0.34714429999999996,1.4838552,0.0124311,2.0994502999999995
19798,10:52:31.398000,0.7062590999999999,3.7180352,-0.193922,1.4056646000000002,-0.0107817,2.2216232000000002
19799,10:52:31.408000,0.9863687,3.3110385,-0.6488007,1.3616823,-0.036438099999999994,2.3071444
19800,10:52:31.418000,1.3981537,3.5360837,-0.8882107,1.3983341,-0.09630280000000001,2.3951089
19801,10:52:31.432000,1.8769734,4.3021955,-1.1108619,1.8149438999999998,-0.3235445,2.5319426
19802,10:52:31.437000,2.3940987999999996,5.2550468,-0.9767923000000001,1.8149438999999998,-0.3235445,2.5319426
19803,10:52:31.450000,2.8346131000000003,6.4449139,-0.40220859999999997,2.4710126,-0.6411941,2.5441599
19804,10:52:31.457000,3.1841512,7.3283366999999995,-0.14125179999999998,2.4710126,-0.6411941,2.5441599
19805,10:52:31.466000,3.6964886,7.8143387,-0.4692433,2.5492034,-0.9869435,2.6712196
19806,10:52:31.480000,4.0723619,8.3506165,-1.1204382,2.4087045,-1.2276242,2.7909491
19807,10:52:31.485000,4.3668360999999996,9.0975752,-1.6686869,2.4087045,-1.2276242,2.7909491
19808,10:52:31.495000,4.5799112,9.8732634,-2.5305624,2.4025958,-1.6723337,2.7542972999999997
19809,10:52:31.504000,4.704403900000001,10.3113832,-4.213614,2.5272121,-1.9472228999999999,2.5820334
19810,10:52:31.513000,5.1042185,9.1358814,-7.701815600000001,2.6616025000000003,-2.3503938,2.4403129
19811,10:52:31.523000,6.459278599999999,7.0194974000000006,-12.293697400000001,2.6616025000000003,-2.3503938,2.4403129
19812,10:52:31.532000,9.5692129,5.3579931,-15.2216797,3.2969017,-4.156109799999999,2.6504502
19813,10:52:31.543000,13.6607265,4.0149035,-14.7548313,3.2969017,-4.156109799999999,2.6504502
19814,10:52:31.553000,16.1601677,2.3174875,-10.6824694,4.1679949999999995,-5.1970229,2.6846588
19815,10:52:31.563000,14.5154209,2.3486105999999998,-5.4346042,5.427598000000001,-5.5464377,2.4354259999999996
19816,10:52:31.573000,9.6673708,2.3845222,-3.4929900000000003,6.6322231,-5.3387437,2.1654236
19817,10:52:31.582000,4.8336854,1.9464022,-6.6484122,7.3396049,-4.8133998,1.9613948
19818,10:52:31.593000,2.082866,0.26813909999999996,-12.3846731,6.661544800000001,-3.9386419999999998,2.1153327999999996
19819,10:52:31.602000,1.5968639,-1.7165686999999998,-17.2255402,6.661544800000001,-3.9386419999999998,2.1153327999999996
19820,10:52:31.611000,2.4683158,-4.034056700000001,-20.2014065,5.9517202000000005,-4.0119457,2.4879603
19821,10:52:31.621000,3.4139847999999997,-6.4449139,-21.860515600000003,5.550993,-4.2465177,2.6528937999999997
19822,10:52:31.631000,4.1202440000000005,-7.369036200000001,-20.728105499999998,5.5473275,-4.3442559,2.4684126
19823,10:52:31.643000,4.984513300000001,-6.3683023,-19.8135624,5.6414008,-4.1463356,2.2448361
19824,10:52:31.651000,6.4880075,-4.3788066,-19.7632866,5.5485492,-3.7370565000000004,2.068907
19825,10:52:31.661000,8.676214199999999,-2.0589249,-20.2373161,4.8362813,-3.2508082000000003,1.5056899
19826,10:52:31.669000,10.6202221,-1.2401432,-20.7065601,4.8362813,-3.2508082000000003,1.5056899
19827,10:52:31.679000,11.7358723,-0.9432749,-19.7991962,4.2706203,-2.9026153,1.2027008999999997
19828,10:52:31.698000,7.953196000000001,-4.115455600000001,-17.800123199999998,3.5827862999999995,-2.4346931,0.9461377000000001
19829,10:52:31.709000,5.1664648,-4.9533906,-19.2270088,1.7758486,0.0820697,0.5063151
19830,10:52:31.717000,3.9263220000000003,-4.010115600000001,-20.919633899999997,1.7758486,0.0820697,0.5063151
19831,10:52:31.727000,4.821714900000001,-1.9799197,-21.2069263,1.5095116000000002,0.5976395,0.4036898
19832,10:52:31.738000,7.165537400000001,1.1898671,-18.286125199999997,1.4178818000000002,0.8383202,0.2631909
19833,10:52:31.748000,7.922072900000001,1.9655551,-16.4618225,1.2358441,0.9421671999999999,0.031062299999999998
19834,10:52:31.759000,6.5239191,1.7237511000000003,-16.0069447,0.26334759999999996,2.0905929,-0.7374055
19835,10:52:31.766000,4.927054900000001,0.11731079999999999,-15.609523800000002,0.26334759999999996,2.0905929,-0.7374055
19836,10:52:31.778000,4.208825599999999,-1.8769734,-14.6614609,-1.7500626,2.6171582000000004,-0.8522481
19837,10:52:31.786000,4.2303724,-2.7292726000000003,-13.9959011,-1.7500626,2.6171582000000004,-0.8522481
19838,10:52:31.796000,5.7171078,-2.7077258,-12.7150583,-2.7152287999999998,2.8138566000000003,-1.1259153999999998
19839,10:52:31.805000,7.6515393,-2.5952029,-11.869941699999998,-2.7152287999999998,2.8138566000000003,-1.1259153999999998
19840,10:52:31.814000,8.6355143,-2.4850745,-12.109351199999999,-2.7030115,2.8297391,-1.353157
19841,10:52:31.826000,8.774372099999999,-2.2001767000000005,-12.523531,-2.4586656000000002,3.0093334,-1.7526627000000001
19842,10:52:31.834000,8.252458599999999,-1.7740271,-14.0030842,-2.4586656000000002,3.0093334,-1.7526627000000001
19843,10:52:31.845000,8.0657187,-1.041433,-14.6614609,-2.5050914,3.0166638,-2.2828932
19844,10:52:31.854000,8.1830292,-0.0430938,-14.850595499999999,-2.5050914,3.0166638,-2.2828932
19845,10:52:31.863000,8.9252005,0.7397765000000001,-14.5010557,-2.7567677,2.8114133,-2.7666981
19846,10:52:31.874000,10.2922306,1.1491673999999998,-14.2113705,-3.1440558,2.8040828999999996,-3.0745737999999996
19847,10:52:31.883000,11.2474756,1.5394055,-14.134758900000001,-3.1440558,2.8040828999999996,-3.0745737999999996
19848,10:52:31.893000,11.7406597,2.0517426,-13.550599100000001,-3.9748318,3.0472071,-3.5815916
19849,10:52:31.902000,11.707142800000002,2.3486105999999998,-13.0861444,-3.9748318,3.0472071,-3.5815916
19850,10:52:31.912000,11.6137733,1.8314854999999999,-12.695905699999999,-4.2753773,3.3660784,-3.8552589
19851,10:52:31.925000,11.2043819,0.7948408,-12.6049299,-4.9680976999999995,3.9818298999999997,-4.2523212
19852,10:52:31.931000,10.797385199999999,-0.44051409999999996,-11.932188,-4.9680976999999995,3.9818298999999997,-4.2523212
19853,10:52:31.943000,10.328142199999998,-1.5848933,-10.6968327,-5.2258825,4.426539900000001,-4.2327733
19854,10:52:31.951000,9.298680300000001,-2.0349839,-9.3441668,-5.2258825,4.426539900000001,-4.2327733
19855,10:52:31.960000,7.946013499999999,-0.339962,-7.5270467000000005,-4.2411685,4.6159077,-4.170465
19856,10:52:31.969000,6.5263127999999995,2.3390346,-4.723557,-4.2411685,4.6159077,-4.170465
19857,10:52:31.979000,4.237555,4.6924334000000005,-3.3086444999999998,-3.5521135000000004,4.578034400000001,-4.1435870999999995
19858,10:52:31.991000,2.2815759,6.993162599999999,-1.5106763,-2.8923794999999997,4.211515400000001,-3.8711413999999995
19859,10:52:31.999000,0.9073634,8.391316400000001,-0.4093909,-2.9278097,3.9818298999999997,-3.6695561000000003
19860,10:52:32.011000,-0.16279870000000002,8.1471176,-0.16279870000000002,-3.0731955,3.7142712999999996,-3.5693742999999993
19861,10:52:32.019000,-0.3830558,6.8878222000000004,-0.33517379999999997,-3.0731955,3.7142712999999996,-3.5693742999999993
19862,10:52:32.029000,-0.241804,5.5997968,-0.4548787,-3.1452775,2.9396949,-3.2443942999999997
19863,10:52:32.040000,-0.34714429999999996,4.2806487,-0.2489863,-2.9730136000000003,2.549963,-3.1234431000000002
19864,10:52:32.047000,-1.0438271000000001,4.0149035,0.2082866,-2.9730136000000003,2.549963,-3.1234431000000002
19865,10:52:32.058000,-1.1755025,4.8265028,0.6344361999999999,-2.6773553,2.1748922000000004,-2.9841659
19866,10:52:32.066000,-0.7230178,5.08746,1.6255928999999998,-2.2411978,1.7472869999999998,-2.8558842999999996
19867,10:52:32.075000,-1.4915235,6.0738287,1.9080968,-1.7280715,1.2561517,-2.8742104
19868,10:52:32.089000,-1.8458501,7.2828484,2.6047795,-1.291914,0.8798590000000001,-2.8473322
19869,10:52:32.095000,-1.8841558,7.914890299999999,3.0692346,-0.8899651,0.5353313000000001,-2.7801371
19870,10:52:32.106000,-1.8865498,8.3937101,3.0572641,-0.6272932,0.2555553,-2.7447069
19871,10:52:32.115000,-2.2959406,9.370502499999999,2.3390346,-0.5368853,0.022205000000000003,-2.5565605
19872,10:52:32.125000,-1.9966784,9.9307222,1.9224613000000002,-0.44159030000000005,-0.3308749,-2.1362855
19873,10:52:32.135000,-1.0174919,10.2275896,1.989496,-0.44159030000000005,-0.3308749,-2.1362855
19874,10:52:32.144000,-0.23462170000000002,10.2180128,1.6543223000000002,-0.48312910000000003,-0.5031386999999999,-1.6976848000000002
19875,10:52:32.155000,0.35672070000000006,9.7080698,1.2976014999999999,-0.5637633000000001,-0.4640433,-1.5193123
19876,10:52:32.163000,0.5745836999999999,9.1526403,1.139591,-0.5637633000000001,-0.4640433,-1.5193123
19877,10:52:32.173000,0.5171254,9.2053099,0.9432749,-0.5625415,-0.2612363,-1.1979975
19878,10:52:32.183000,0.799629,9.633853,0.7302001,-0.5625415,-0.2612363,-1.1979975
19879,10:52:32.192000,1.3047838,10.1007032,0.7421706,-0.4806857,-0.1732717,-1.1601238
19880,10:52:32.205000,1.5010998,10.016908599999999,0.799629,-0.4244861,-0.0388815,-1.1466848
19881,10:52:32.211000,1.5705287,9.787075999999999,0.5171254,-0.4244861,-0.0388815,-1.1466848
19882,10:52:32.222000,2.0469543999999997,9.506965600000001,0.5865541999999999,-0.5271114,0.0674089,-1.1161416000000002
19883,10:52:32.231000,2.3964927000000005,9.2891026,0.47642559999999995,-0.5857544,0.1297171,-1.1308023
19884,10:52:32.241000,2.2743938,9.3154383,0.45727290000000004,-0.6211846,0.1639256,-1.182115
19885,10:52:32.260000,1.8506383999999998,9.008994099999999,0.5314899000000001,-0.7335837,0.33496770000000003,-1.3482702
19886,10:52:32.271000,1.6136225,9.1406689,0.6559831,-0.7421358,0.36306740000000004,-1.3995829
19887,10:52:32.279000,1.3694245,9.293891,0.6799241,-0.7421358,0.36306740000000004,-1.3995829
19888,10:52:32.290000,1.2760546,9.377684599999998,0.9025753000000001,-0.7482444,0.3777282,-1.4936559
19889,10:52:32.300000,0.9576395000000001,9.389655099999999,0.8714519000000001,-0.7482444,0.3777282,-1.4936559
19890,10:52:32.309000,0.6751359,8.8773184,0.7924467,-0.8826345999999999,0.4265974,-1.5364165
19891,10:52:32.324000,0.5674013000000001,8.3649807,0.8570873999999999,-0.9559385,0.4314843,-1.5156471000000002
19892,10:52:32.328000,0.3950263,8.0561428,0.8642696,-0.9559385,0.4314843,-1.5156471000000002
19893,10:52:32.339000,-0.055064300000000004,8.1710587,0.8882107,-0.8789693999999999,0.4119366,-1.4765518
19894,10:52:32.347000,-0.5745836999999999,8.3793459,1.0821326,-0.8789693999999999,0.4119366,-1.4765518
19895,10:52:32.358000,-1.0869209,8.4583511,1.1755025,-0.7641269,0.392389,-1.3959177
19896,10:52:32.367000,-1.5681346999999999,8.3673754,1.2999957,-0.7641269,0.392389,-1.3959177
19897,10:52:32.377000,-1.9416142,8.2476702,1.3861831,-0.7848963000000001,0.3044245,-1.2627491000000002
19898,10:52:32.388000,-2.0014665000000003,8.2883701,1.5154645,-0.8007787,0.21279479999999998,-1.2016627
19899,10:52:32.396000,-1.9200671999999999,8.5445375,1.9200671999999999,-0.8007787,0.21279479999999998,-1.2016627
19900,10:52:32.407000,-1.9942843000000001,8.7288837,2.1427186000000003,-0.7005969,0.008765899999999998,-1.1002591
19901,10:52:32.415000,-2.1235654,8.9850531,2.1953886000000002,-0.7005969,0.008765899999999998,-1.1002591
19902,10:52:32.425000,-2.1092009999999997,9.0449047,2.183418,-0.682271,-0.0889724,-1.0184033000000001
19903,10:52:32.437000,-1.8721851999999999,9.1143341,2.3557932,-0.7018187,-0.307662,-0.9414343000000001
19904,10:52:32.445000,-1.8626089,9.104758300000002,2.4060693,-0.7018187,-0.307662,-0.9414343000000001
19905,10:52:32.456000,-1.8817616999999998,8.9252005,2.4108574000000003,-0.7103708000000001,-0.4005134,-0.8998955
19906,10:52:32.464000,-1.9176731,8.6833963,2.3222756,-0.7189229,-0.4848128,-0.8620219000000001
19907,10:52:32.474000,-1.7429038000000001,8.587632199999998,2.4180398,-0.7079273,-0.6705156999999999,-0.8204831
19908,10:52:32.486000,-1.5370114,8.5612974,2.4419807999999996,-0.6602799,-0.7597019,-0.8473610999999999
19909,10:52:32.493000,-1.5226468,8.5924196,2.3964927000000005,-0.6602799,-0.7597019,-0.8473610999999999
19910,10:52:32.503000,-1.5370114,8.587632199999998,2.2911525,-0.6211846,-0.8684358,-0.9047824000000001
19911,10:52:32.513000,-1.4388534,8.4942617,2.1929946,-0.6211846,-0.8684358,-0.9047824000000001
19912,10:52:32.522000,-1.3454834999999998,8.3290691,2.130748,-0.6285149,-0.9148615,-0.9353256999999999
19913,10:52:32.534000,-1.065374,8.156694400000001,2.106807,-0.6456192,-0.9527351000000001,-0.9829730999999999
19914,10:52:32.541000,-0.8068113,8.1351471,2.0972304,-0.6529496,-0.9893870000000001,-1.0318421999999998
19915,10:52:32.553000,-0.7134414000000001,8.1902122,2.2624232999999996,-0.6077454999999999,-1.0284824000000001,-1.0978156000000001
19916,10:52:32.561000,-0.7541412,8.2716112,2.2241178,-0.6077454999999999,-1.0284824000000001,-1.0978156000000001
19917,10:52:32.571000,-0.8810283000000001,8.2069702,2.135536,-0.6065238000000001,-0.9906088,-1.1515718000000001
19918,10:52:32.588000,-1.0821326,8.156694400000001,2.5090156,-0.6602799,-0.9637306999999999,-1.1564586000000001
19919,10:52:32.592000,-1.2736604999999999,8.0298071,2.7029376,-0.7567965,-0.9087529000000001,-1.1576803999999998
19920,10:52:32.603000,-1.26169,7.7688502999999995,2.7340607999999995,-0.8728608,-0.8769879,-1.1772281
19921,10:52:32.609000,-1.0749503,7.5102877999999995,2.7627900000000003,-0.8728608,-0.8769879,-1.1772281
19922,10:52:32.618000,-0.9863687,7.2086315,2.9303767999999994,-0.9412777,-0.8549968000000001,-1.2016627
19923,10:52:32.627000,-1.2425373,6.8950043,3.0931754000000002,-0.9229516999999999,-0.7816930000000001,-1.2175452
19924,10:52:32.638000,-1.6926279,6.827969599999999,3.3972260999999997,-0.8508697000000001,-0.6656287,-1.2077712999999999
19925,10:52:32.649000,-2.2097533,6.7800875,3.4929900000000003,-0.7299185,-0.41395240000000005,-1.0953722
19926,10:52:32.657000,-2.5185918999999997,6.7226295,3.8161936,-0.7299185,-0.41395240000000005,-1.0953722
19927,10:52:32.669000,-2.8441892,6.782482099999999,4.139396700000001,-0.7201446,-0.3125489,-1.0184033000000001
19928,10:52:32.677000,-3.1913337999999998,6.997950599999999,4.2160082,-0.7189229,-0.23191479999999998,-0.9072259
19929,10:52:32.687000,-3.3421616999999997,6.9692216,4.4434476,-0.7836746,-0.0596509,-0.631115
19930,10:52:32.698000,-3.3277972,6.8710637000000006,4.6900395999999995,-0.7836746,-0.0596509,-0.631115
19931,10:52:32.706000,-3.5073547,6.5502539,5.0419722,-0.8606434999999999,0.0209832,-0.5358201
19932,10:52:32.718000,-3.9670214999999995,6.2845092000000005,5.1377358,-0.9889251,0.301981,-0.32690440000000004
19933,10:52:32.726000,-4.603851799999999,5.9780644999999994,5.2071648,-0.9889251,0.301981,-0.32690440000000004
19934,10:52:32.738000,-5.1185832,5.630920400000001,4.9964838,-0.9168431,0.5609877,-0.16319270000000002
19935,10:52:32.745000,-5.317293599999999,5.1856179000000004,4.876779099999999,-0.9168431,0.5609877,-0.16319270000000002
19936,10:52:32.755000,-5.2837758,4.771439099999999,4.9150844000000005,-0.8728608,0.6086351,-0.183962
19937,10:52:32.767000,-5.4154515,4.6469455,5.037183799999999,-0.7616835,0.6220741,-0.2890308
19938,10:52:32.774000,-5.5590972999999995,4.6565218,5.125765299999999,-0.7616835,0.6220741,-0.2890308
19939,10:52:32.788000,-5.7338667,4.9055085,5.4010868,-0.5295548000000001,0.5842005,-0.3757736
19940,10:52:32.794000,-5.784142500000001,5.3484163,5.678801999999999,-0.5295548000000001,0.5842005,-0.3757736
19941,10:52:32.813000,-5.6069794,5.8009014,5.8942709,-0.42937299999999995,0.5206706,-0.40998199999999996
19942,10:52:32.822000,-5.5806441,5.8248425,5.8583593,-0.2656613,0.3044245,-0.4808423
19943,10:52:32.834000,-5.702743099999999,5.647678900000001,5.7458372,-0.3059784,0.12238679999999999,-0.45152079999999994
19944,10:52:32.842000,-5.8511777,5.2885642,5.4681215,-0.3059784,0.12238679999999999,-0.45152079999999994
19945,10:52:32.852000,-5.9158182,5.1377358,5.343628400000001,-0.3658431,0.05396990000000001,-0.44052520000000006
19946,10:52:32.862000,-5.927788700000001,4.9438138,5.3532052000000006,-0.4098254,-0.0217773,-0.4246427
19947,10:52:32.871000,-5.7913251,4.8624144,5.331657900000001,-0.39882979999999996,-0.11951569999999999,-0.4124255
19948,10:52:32.884000,-5.8056893,4.9246612,5.314899,-0.28032199999999996,-0.31010540000000003,-0.3818822
19949,10:52:32.891000,-5.872724099999999,5.2478647,5.4609389,-0.28032199999999996,-0.31010540000000003,-0.3818822
19950,10:52:32.904000,-5.9804587,5.367569400000001,5.5375504,-0.149597,-0.39807,-0.378217
19951,10:52:32.909000,-6.083405,5.4393926,5.5231862000000005,-0.149597,-0.39807,-0.378217
19952,10:52:32.919000,-6.1959276,5.286169999999999,5.4872746,-0.1251624,-0.4054003,-0.3684432
19953,10:52:32.932000,-6.3036617999999995,5.0036664,5.5423384,-0.2241225,-0.3968483,-0.2902525
19954,10:52:32.939000,-6.5095544,4.7020102,5.5375504,-0.2241225,-0.3968483,-0.2902525
19955,10:52:32.949000,-6.684323299999999,4.4626002,5.5710678,-0.2827655,-0.3638616,-0.2658179
19956,10:52:32.958000,-6.815999000000001,4.3117719,5.7793546,-0.3023131,-0.32843140000000004,-0.2450485
19957,10:52:32.967000,-6.9428864,4.3093777,5.9110298,-0.2900959,-0.307662,-0.23038779999999998
19958,10:52:32.981000,-7.0051331999999995,4.295013,6.282115,-0.2571092,-0.27834050000000005,-0.2120618
19959,10:52:32.987000,-7.1128674,4.3069835,6.6340475,-0.20335309999999998,-0.2453538,-0.2083966
19960,10:52:33.002000,-7.3067894,4.488935,6.8902159,-0.1703664,-0.16105450000000002,-0.15952750000000002
19961,10:52:33.006000,-7.4671940999999995,4.603851799999999,7.347488900000001,-0.1703664,-0.16105450000000002,-0.15952750000000002
19962,10:52:33.016000,-7.7281508,4.6158223,7.5102877999999995,-0.22778769999999998,-0.0889724,-0.15586229999999998
19963,10:52:33.025000,-7.7736387,4.508088099999999,7.8430675999999995,-0.22778769999999998,-0.0889724,-0.15586229999999998
19964,10:52:33.035000,-7.766456599999999,4.0627856,7.9771371,-0.31086529999999996,-0.08408550000000001,-0.18274029999999997
19965,10:52:33.048000,-7.8071561,3.5480542,7.957984,-0.5662067,-0.1146287,-0.23893989999999998
19966,10:52:33.055000,-8.108812299999999,3.1913337999999998,7.9508018,-0.5662067,-0.1146287,-0.23893989999999998
19967,10:52:33.068000,-8.467927,2.9902293999999996,8.137541800000001,-0.5136724,-0.1928194,-0.1338711
19968,10:52:33.074000,-8.669032099999999,3.1003580000000004,8.1902122,-0.5136724,-0.1928194,-0.1338711
19969,10:52:33.084000,-8.3817396,3.0381112,8.0657187,-0.2949828,-0.31499240000000006,-0.0495718
19970,10:52:33.097000,-7.8981318,3.0189586,7.9508018,-0.0213154,-0.4945866,0.0005191
19971,10:52:33.103000,-7.4456468,3.0764169999999997,7.6371750999999986,0.2340261,-0.6741808000000001,0.0420579
19972,10:52:33.115000,-7.0865326,3.0213525000000003,7.3522773,0.42095070000000007,-0.8843183000000001,0.15812220000000002
19973,10:52:33.123000,-6.8830342,2.8848889,7.1918726,0.42095070000000007,-0.8843183000000001,0.15812220000000002
19974,10:52:33.132000,-6.866274799999999,2.9806529999999998,7.1176553,0.4771502,-0.9160833,0.19843929999999999
19975,10:52:33.143000,-6.698688499999999,3.2631563999999997,7.1272321,0.5651147,-0.9319656999999999,0.25586060000000005
19976,10:52:33.152000,-6.322814900000001,3.5001721,6.88064,0.7105005999999999,-0.9502917,0.303508
19977,10:52:33.165000,-5.906241400000001,3.6845181000000005,6.8447285,1.0330370999999998,-0.9771698,0.3132818
19978,10:52:33.171000,-5.647678900000001,3.8114052000000003,6.8902159,1.0330370999999998,-0.9771698,0.3132818
19979,10:52:33.181000,-5.5710678,3.7778878,6.7154469,1.1014540000000002,-0.9392961,0.3682597
19980,10:52:33.190000,-5.4633335999999995,3.6797296999999998,6.3084502,1.1075627000000001,-0.853775,0.4378982
19981,10:52:33.200000,-5.33884,3.5384779,6.0283403,1.0929018,-0.7609236,0.5014281
19982,10:52:33.213000,-5.2598348,3.5049605,5.9469414,1.1454362,-0.6314203,0.6480357
19983,10:52:33.219000,-5.1544943,3.5815718,5.8152661,1.1454362,-0.6314203,0.6480357
19984,10:52:33.230000,-4.9629664,3.6701536,5.6069794,1.2297354999999999,-0.5727773,0.718896
19985,10:52:33.239000,-4.781014900000001,3.7371883,5.556703099999999,1.336026,-0.5251298000000001,0.7885346
19986,10:52:33.249000,-4.575122400000001,3.8449225,5.286169999999999,1.4459816,-0.49336490000000005,0.8691687
19987,10:52:33.262000,-4.412324,3.8401343999999997,5.034789599999999,1.5302809,-0.4579347,0.9644636999999999
19988,10:52:33.268000,-4.1537614000000005,4.010115600000001,4.9079027,1.6854407,-0.4151742,1.1648273
19989,10:52:33.280000,-3.8497107,4.3069835,4.7451034000000005,1.8002831999999998,-0.40662209999999993,1.2454615
19990,10:52:33.287000,-3.5672072999999997,4.7738328,4.479359099999999,1.8002831999999998,-0.40662209999999993,1.2454615
19991,10:52:33.298000,-3.2631563999999997,5.3292642,4.4506296999999995,1.9077953999999997,-0.3882961,1.3102131000000001
19992,10:52:33.316000,-2.7412429,6.140863400000001,3.9981451,1.9798773999999997,-0.3540877,1.3676343999999998
19993,10:52:33.332000,-2.52338,6.2988739,4.0627856,1.7880658999999999,-0.10729839999999999,1.5692197
19994,10:52:33.335000,-2.353399,6.416184400000001,3.5696013,1.7880658999999999,-0.10729839999999999,1.5692197
19995,10:52:33.346000,-2.2887584999999997,6.514342299999999,3.4451079,1.6878841,-0.0071166,1.6351931
19996,10:52:33.355000,-2.4443748,6.452096,3.296674,1.6487886999999999,0.0930653,1.6816188000000003
19997,10:52:33.365000,-2.5688679,6.2270508,2.6766026000000003,1.6805537,0.184695,1.7194923999999998
19998,10:52:33.375000,-2.3701577,5.9325767,2.5425327,1.7001013999999999,0.2213469,1.7830224
19999,10:52:33.384000,-1.9511904999999998,5.5447326,2.5616858,1.6365714,0.25066839999999996,1.789131
20000,10:52:33.396000,-1.5370114,5.4154515,2.2097533,1.54372,0.3032027,1.7207142
20001,10:52:33.403000,-1.0797385,5.257441,2.0852599,1.54372,0.3032027,1.7207142
20002,10:52:33.413000,-0.8690578999999999,4.948602200000001,1.7907859,1.3177,0.31053309999999995,1.7524792000000002
20003,10:52:33.423000,-0.6104951999999999,4.613428599999999,1.649534,1.3177,0.31053309999999995,1.7524792000000002
20004,10:52:33.433000,-0.36390300000000003,4.4027476,1.3143603000000001,1.2126313,0.29709409999999997,1.8489958
20005,10:52:33.445000,-0.047882,4.3093777,1.1132559,1.069689,0.17980810000000003,1.9736121
20006,10:52:33.452000,0.316021,4.4338708,0.9073634,1.069689,0.17980810000000003,1.9736121
20007,10:52:33.462000,0.7972349,4.8552327,0.8906046999999999,1.2456180000000001,0.008765899999999998,2.068907
20008,10:52:33.472000,1.237749,5.2526526,0.7924467,1.2456180000000001,0.008765899999999998,2.068907
20009,10:52:33.481000,1.5489819,5.6811967,0.8355404000000001,1.3848951999999999,-0.07797689999999999,2.110446
20010,10:52:33.493000,1.7405096999999998,6.0115819,0.8068113,1.4777466000000001,-0.1244026,2.1532063
20011,10:52:33.501000,1.7836037,6.136075,0.6918946,1.5034028999999998,-0.13906329999999997,2.1849713
20012,10:52:33.511000,1.9918901000000002,6.121710299999999,0.5769778,1.4044428,-0.1476154,2.2155147
20013,10:52:33.520000,2.2624232999999996,5.889483,0.3950263,1.4044428,-0.1476154,2.2155147
20014,10:52:33.530000,2.4611335,5.4489684,0.28968590000000005,1.3519084,-0.17815870000000003,2.2436144000000002
20015,10:52:33.540000,2.3342462000000004,4.9629664,0.1723751,1.3201435,-0.20137149999999998,2.2802662999999996
20016,10:52:33.549000,1.7429038000000001,4.220796099999999,0.35432659999999994,1.2920437,-0.18548900000000001,2.3291353999999997
20017,10:52:33.561000,0.8403287,3.2440037999999998,0.459667,1.4007777,-0.12684600000000001,2.5148382000000002
20018,10:52:33.569000,0.43333190000000005,2.6359026,-0.12928130000000002,1.4007777,-0.12684600000000001,2.5148382000000002
20019,10:52:33.581000,1.333513,2.6287205,-0.8355404000000001,1.6084716000000001,-0.275897,2.6406765
20020,10:52:33.587000,3.2559742999999997,4.0316625,-0.4381201,2.3354006000000003,-1.1237773000000002,2.6651111000000003
20021,10:52:33.598000,4.5870929,6.0786166,-0.038305599999999995,2.8008794999999997,-1.4072185,2.5734812999999996
20022,10:52:33.607000,4.8863554,8.2740059,0.1651928,3.1173074,-1.4218793,2.4842951
20023,10:52:33.615000,4.2543135,9.0712404,-0.45248469999999996,3.1173074,-1.4218793,2.4842951
20024,10:52:33.627000,3.5983305,8.676214199999999,-0.5554309000000001,2.6640458,-1.4279878000000001,2.6333461
20025,10:52:33.635000,3.3397677000000003,7.273272,-0.8594815,2.0934982,-1.5770388000000002,2.7933927000000005
20026,10:52:33.647000,3.5193252999999998,5.3460225999999995,-1.6064403,2.0934982,-1.5770388000000002,2.7933927000000005
20027,10:52:33.658000,3.5480542,3.7515528,-2.2504527999999997,1.5950327,-1.7700721999999998,2.8349314
20028,10:52:33.666000,3.4139847999999997,3.952657,-3.4020143,1.3616823,-1.9533314999999998,2.8789136
20029,10:52:33.680000,4.6158223,7.4264946,-4.0986972,1.9395603,-2.3308461,2.8581442999999997
20030,10:52:33.685000,7.108078999999999,13.433287599999998,-4.515270200000001,1.9395603,-2.3308461,2.8581442999999997
20031,10:52:33.694000,10.4047527,18.831979800000003,-6.040310900000001,3.1148641,-2.796325,2.4842951
20032,10:52:33.704000,13.7756443,20.136764499999998,-5.8368125,4.773973000000001,-3.2080476000000004,2.0078206
20033,10:52:33.713000,11.8316364,17.0938663,-5.1353421,5.9785981,-3.3961940000000004,2.0750158
20034,10:52:33.725000,7.981925,8.9682941,-5.8080834999999995,3.6011123999999994,-3.0137928,5.0670309
20035,10:52:33.733000,6.3635144,0.2489863,-8.046566,3.6011123999999994,-3.0137928,5.0670309
20036,10:52:33.742000,5.097035900000001,-6.3683023,-11.484492300000001,1.7001013999999999,-3.2654691000000002,5.8257251
20037,10:52:33.753000,4.3764124,-10.2682896,-14.7213135,0.6433054,-3.6087749,6.1910224000000005
20038,10:52:33.762000,6.171986599999999,-11.146924,-17.029224399999997,0.6762921,-3.5782317999999997,6.0004325
20039,10:52:33.779000,9.4662657,-9.3561382,-16.1146793,3.6719727999999994,-4.0033937,3.0817208
20040,10:52:33.781000,11.096648199999999,-4.479359099999999,-14.1730652,3.6719727999999994,-4.0033937,3.0817208
20041,10:52:33.792000,11.2091703,-0.5721896,-12.4373426,5.3396335,-3.8616731,2.3682307999999996
20042,10:52:33.801000,10.5244579,0.9767923000000001,-12.2338448,5.780677799999999,-3.2703558999999998,2.2228451000000002
20043,10:52:33.810000,9.732010800000001,1.4963118,-12.5307131,5.017097,-2.6228395,1.9149691999999998
20044,10:52:33.821000,9.415989900000001,1.4412475,-13.251337099999999,3.0183475,-2.1610255,1.8783172
20045,10:52:33.830000,9.6386423,1.3191483999999998,-13.722973800000002,3.0183475,-2.1610255,1.8783172
20046,10:52:33.841000,9.9498739,0.8762401,-12.932921400000001,2.9474871,-2.4224758,2.0896764
20047,10:52:33.849000,9.370502499999999,0.33517379999999997,-11.9369764,3.3640969,-2.6949215,2.1935234
20048,10:52:33.859000,8.0298071,-0.30165640000000005,-11.939370199999999,3.7782631,-2.7217994,2.186193
20049,10:52:33.869000,6.713053200000001,-1.0629798000000001,-12.573806800000002,3.7990324,-2.5336529999999997,2.0860114
20050,10:52:33.879000,5.8631482,-2.0972304,-13.790008499999999,3.002465,-2.1756863999999996,1.6938361000000002
20051,10:52:33.891000,5.6357083,-3.1434517000000004,-14.730890300000002,2.532099,-2.0620654,1.5655545
20052,10:52:33.898000,6.2605680999999995,-4.1872787,-15.178586,2.532099,-2.0620654,1.5655545
20053,10:52:33.909000,8.573267900000001,-5.0539427,-11.096648199999999,1.9810991000000002,-1.8690321,1.2027008999999997
20054,10:52:33.918000,10.378418,-7.8478556,-13.7277622,1.9810991000000002,-1.8690321,1.2027008999999997
20055,10:52:33.936000,8.9084406,-6.938097999999999,-21.266780899999997,1.7196491000000003,-1.5440521,1.0976322
20056,10:52:33.941000,6.8590932,-0.1867397,-29.2367344,0.9365205,-1.7847328000000002,1.3004392
20057,10:52:33.956000,11.994435300000001,3.1338751,-25.1954956,0.9365205,-1.7847328000000002,1.3004392
20058,10:52:33.964000,7.756879799999999,6.9333100000000005,-14.2544641,1.6634494999999998,-0.3858527,-0.6433324
20059,10:52:33.974000,6.8950043,5.6069794,-6.468854900000001,1.6634494999999998,-0.3858527,-0.6433324
20060,10:52:33.983000,7.3810066999999995,-0.007182300000000001,-5.4776978,0.4307245,-0.2074802,0.2118783
20061,10:52:33.993000,5.8511777,-4.0484209,-9.3130436,-2.2607455,0.27632470000000003,-1.2102146999999999
20062,10:52:34.005000,4.2591014000000005,-5.4609389,-14.2807989,-4.7567387000000005,1.7228522000000002,-1.0122947
20063,10:52:34.014000,5.0132432,-6.574194900000001,-17.019647600000003,-4.7567387000000005,1.7228522000000002,-1.0122947
20064,10:52:34.023000,7.687450900000001,-5.8679361,-16.3971825,-3.6303040999999996,1.665431,-0.3940995
20065,10:52:34.034000,9.3250151,-2.7795486,-14.510633499999999,-2.0493863,1.6690962,-0.604237
20066,10:52:34.043000,9.4973898,-0.023941,-11.7837543,-0.7531313000000001,2.1565661,-1.033064
20067,10:52:34.056000,8.496656399999999,1.0701622,-11.6927776,-0.687158,3.526125,-1.5889508999999997
20068,10:52:34.062000,7.2828484,0.007182300000000001,-12.906585699999999,-0.687158,3.526125,-1.5889508999999997
20069,10:52:34.072000,6.595742200000001,-1.3694245,-14.0174484,-2.5845039,3.7252669000000003,-1.8088621999999999
20070,10:52:34.082000,6.815999000000001,-1.9272496,-14.4412041,-2.5845039,3.7252669000000003,-1.8088621999999999
20071,10:52:34.090000,8.269216499999999,-1.3454834999999998,-13.9192896,-2.8239627,3.6043155,-1.8125273999999998
20072,10:52:34.100000,9.650611900000001,-0.3495384,-12.5283194,-2.6419251,3.4332736000000006,-2.0275519
20073,10:52:34.111000,9.882840199999999,1.0150979,-11.2067757,-2.3865836,3.3355349999999997,-2.3745229
20074,10:52:34.123000,9.562029800000001,1.8697912,-10.206043199999998,-2.4244573,3.5077989,-2.8326714
20075,10:52:34.130000,9.6601877,1.8266973000000002,-9.2962847,-2.4244573,3.5077989,-2.8326714
20076,10:52:34.142000,9.796651800000001,1.0893148000000001,-8.937171000000001,-2.9962265,3.6873932000000003,-3.4948487
20077,10:52:34.149000,9.980998,-0.31362690000000004,-9.1454573,-2.9962265,3.6873932000000003,-3.4948487
20078,10:52:34.159000,10.2132254,-1.8434560000000002,-9.246008900000001,-3.3089892999999995,4.0319214,-3.810055
20079,10:52:34.170000,10.1150665,-2.4036752999999997,-9.2029161,-3.1721556,4.1223292,-3.8063898000000003
20080,10:52:34.178000,9.5045719,-1.5370114,-8.2261238,-3.1721556,4.1223292,-3.8063898000000003
20081,10:52:34.189000,8.597209,0.5530368,-6.8902159,-2.8215194,4.3251362,-3.7990593999999995
20082,10:52:34.199000,7.852644000000001,2.6909671000000004,-5.168858999999999,-2.3829184,4.5755906,-3.8405983
20083,10:52:34.208000,7.5749283,4.8073505999999995,-3.7156413,-2.0347254,4.6452293,-3.8259375
20084,10:52:34.218000,7.1751142,6.4113964999999995,-3.4259553,-1.9113308999999998,4.5670385,-3.684217
20085,10:52:34.227000,6.456884400000001,7.0362558,-2.9902293999999996,-1.9956303,4.3019233,-3.5119531000000004
20086,10:52:34.240000,5.317293599999999,6.4544902,-2.9375593999999996,-2.2754061,3.8889787000000005,-3.2309551
20087,10:52:34.246000,4.0316625,6.4042139,-1.4675825,-2.2754061,3.8889787000000005,-3.2309551
20088,10:52:34.256000,2.4060693,5.8607535,-1.5920756,-2.3389361,3.787575,-3.1124475
20089,10:52:34.266000,1.8602147,4.4314770999999995,-0.1891338,-2.7592111,2.9751251,-2.9365183999999998
20090,10:52:34.275000,2.1379302000000004,5.391510500000001,-0.6416184,-2.7592111,2.9751251,-2.9365183999999998
20091,10:52:34.285000,4.0747561,6.1097398,0.1053403,-2.2864017000000003,1.7094133000000002,-2.6530771
20092,10:52:34.294000,3.7060647000000007,8.2979469,0.4668492,-2.2864017000000003,1.7094133000000002,-2.6530771
20093,10:52:34.306000,2.1403244,9.301074,0.9121516,-2.1801114,1.7423999,-2.2999973
20094,10:52:34.314000,1.5370114,8.958718300000001,1.0629798000000001,-2.1801114,1.7423999,-2.2999973
20095,10:52:34.324000,1.721357,7.5342288,0.6248598000000001,-2.3340492000000004,1.7130785,-2.3549752
20096,10:52:34.337000,1.8458501,6.717841099999999,0.8666638000000001,-2.4317877,1.223165,-2.7813587
20097,10:52:34.344000,1.1563497999999999,5.8224478,0.49797250000000004,-2.4317877,1.223165,-2.7813587
20098,10:52:34.353000,0.7469588,5.2741995,0.9743982,-1.7891578999999997,0.8261029000000001,-2.8387802000000004
20099,10:52:34.363000,0.193922,6.1552280999999995,1.4005477,-1.7891578999999997,0.8261029000000001,-2.8387802000000004
20100,10:52:34.373000,0.0311233,7.4360704,1.8219091,-1.0084728,0.4498103,-2.6115383999999997
20101,10:52:34.385000,0.0406997,8.499051099999999,2.3510051,-1.0084728,0.4498103,-2.6115383999999997
20102,10:52:34.391000,-0.1651928,9.219674099999999,2.6598437,-0.7311403000000001,0.2946506,-2.4502702000000003
20103,10:52:34.403000,-0.36629709999999993,9.7248287,2.8681302000000004,-0.4379251,0.16148210000000002,-2.0923035
20104,10:52:34.411000,-0.5506426999999999,10.3113832,3.1314812,-0.4379251,0.16148210000000002,-2.0923035
20105,10:52:34.421000,-0.6703475999999999,10.8931494,3.0452936,-0.2522223,0.07473930000000001,-1.8296316000000004
20106,10:52:34.430000,-0.5458545,10.7614737,3.0572641,-0.2522223,0.07473930000000001,-1.8296316000000004
20107,10:52:34.440000,-0.24419810000000003,10.2898359,2.5712618999999997,-0.2619961,0.035644,-1.7208976999999999
20108,10:52:34.452000,0.339962,9.4686613,2.619144,-0.4354817,-0.0474336,-1.3409398000000001
20109,10:52:34.459000,0.7804762,9.0449047,2.3797342999999995,-0.4354817,-0.0474336,-1.3409398000000001
20110,10:52:34.472000,1.0366447,9.4495077,2.3845222,-0.47091179999999994,-0.013225200000000001,-1.0819331
20111,10:52:34.489000,1.4484297,9.6889181,2.1163833,-0.47091179999999994,-0.013225200000000001,-1.0819331
20112,10:52:34.501000,1.6998101000000003,9.116727800000001,2.1283537999999997,-0.4733553,0.0955087,-0.9463212
20113,10:52:34.508000,1.9416142,8.4344101,1.6758691000000003,-0.5491024999999999,0.12849539999999998,-0.8962303
20114,10:52:34.520000,2.0062547,7.9124966,1.3406953000000001,-0.6162976,0.2408945,-0.9243300999999999
20115,10:52:34.528000,1.9583727,7.627598299999999,1.3694245,-0.6162976,0.2408945,-0.9243300999999999
20116,10:52:34.537000,1.721357,7.7592740000000004,1.3813950000000002,-0.5674285,0.3044245,-0.9573168
20117,10:52:34.548000,1.4005477,7.9436197,1.5705287,-0.4757988,0.36184570000000005,-1.006186
20118,10:52:34.556000,1.0510093999999999,8.1471176,1.6854455000000002,-0.3817256,0.41804529999999995,-1.0831548999999998
20119,10:52:34.572000,0.8092054,8.321887,1.8147268,-0.18258370000000002,0.4925708,-1.3006227
20120,10:52:34.578000,0.8331464,8.0776892,1.8745793999999998,-0.1105016,0.46691450000000007,-1.4191303999999998
20121,10:52:34.585000,0.7541412,7.9388312999999995,1.8913380000000002,-0.059189,0.4388147,-1.4802170000000001
20122,10:52:34.595000,0.5195194000000001,7.8670086999999995,2.0182252,-0.059189,0.4388147,-1.4802170000000001
20123,10:52:34.605000,0.14125179999999998,7.7496977,2.1403244,-0.013985,0.4412581,-1.5132036
20124,10:52:34.617000,-0.387844,7.6419630000000005,2.0804718,0.0287755,0.42904079999999994,-1.5950594999999999
20125,10:52:34.625000,-0.8259639999999999,7.613233999999999,2.0613191000000004,0.0287755,0.42904079999999994,-1.5950594999999999
20126,10:52:34.634000,-1.2736604999999999,7.565352000000001,2.1283537999999997,0.031219,0.3032027,-1.6097202
20127,10:52:34.644000,-1.6423517,7.452829400000001,2.1283537999999997,0.031219,0.3032027,-1.6097202
20128,10:52:34.653000,-1.7285392,7.4049473,2.2743938,0.039771100000000004,0.15781689999999998,-1.5755118000000001
20129,10:52:34.671000,-1.8913380000000002,7.6108398,2.4276164000000002,0.032440699999999996,-0.2844491,-1.3702613000000001
20130,10:52:34.675000,-2.0134369999999997,8.1471176,2.5161977,0.029997199999999998,-0.515356,-1.2761881000000002
20131,10:52:34.684000,-2.0924423,8.4368038,2.4563452999999997,0.029997199999999998,-0.515356,-1.2761881000000002
20132,10:52:34.692000,-2.0373781,8.7647963,2.3845222,-0.1337145,-0.8672141,-1.0660506
20133,10:52:34.700000,-1.9248554,8.973081599999999,2.5999912999999997,-0.1337145,-0.8672141,-1.0660506
20134,10:52:34.710000,-1.7979681,8.9850531,2.6359026,-0.2571092,-1.0590255,-0.9231084
20135,10:52:34.720000,-1.601652,8.8868952,2.7484252000000002,-0.4037167,-1.1958592,-0.8107093000000001
20136,10:52:34.733000,-1.4412475,8.8174658,2.6574495,-0.6944883000000001,-1.2630544,-0.7459576
20137,10:52:34.741000,-1.2880251,8.6283321,2.8226426,-0.6944883000000001,-1.2630544,-0.7459576
20138,10:52:34.753000,-1.2640841,8.637908,2.8561597,-0.7690138000000001,-1.3204758,-0.7752791
20139,10:52:34.760000,-1.3406953000000001,8.503838499999999,2.8034897,-0.7690138000000001,-1.3204758,-0.7752791
20140,10:52:34.770000,-1.4268829,8.3434343,2.8944654,-0.7164794,-1.3033714,-0.8119310000000001
20141,10:52:34.783000,-1.4484297,8.2476702,2.8154602000000004,-0.5735371,-1.3497972,-0.8192613999999999
20142,10:52:34.789000,-1.5274348999999998,8.240488099999999,2.9351648999999997,-0.5735371,-1.3497972,-0.8192613999999999
20143,10:52:34.800000,-1.6088343999999999,8.1854239,2.8082778,-0.4721335,-1.4768572,-0.7105275
20144,10:52:34.809000,-1.6208049,8.1183891,2.7173021,-0.4721335,-1.4768572,-0.7105275
20145,10:52:34.818000,-1.6112285,8.221335400000001,2.7053316,-0.4623597,-1.4988482,-0.7105275
20146,10:52:34.831000,-1.4819472,8.4200449,2.9255888,-0.4733553,-1.5391653,-0.6958667
20147,10:52:34.837000,-1.2808429,8.721701600000001,3.1626046000000003,-0.4770205,-1.6014736,-0.6848711
20148,10:52:34.849000,-1.1204382,9.1143341,3.5073547,-0.48435079999999997,-1.6931031000000003,-0.7007536
20149,10:52:34.857000,-1.0150979,9.389655099999999,3.8137991,-0.48435079999999997,-1.6931031000000003,-0.7007536
20150,10:52:34.867000,-1.0486152,9.7439823,4.055603,-0.46724659999999996,-1.6894381,-0.7166361
20151,10:52:34.877000,-1.1228323,10.1126728,4.0939087999999995,-0.4244861,-1.6540078999999999,-0.7276316999999999
20152,10:52:34.886000,-1.1348027,10.2228022,4.1082735,-0.3047566,-1.5880344,-0.7410707
20153,10:52:34.899000,-1.1922611,10.263501199999999,4.1010914,-0.28765240000000003,-1.5733738000000002,-0.7447359
20154,10:52:34.906000,-1.2592959,10.1653433,4.0627856,-0.28765240000000003,-1.5733738000000002,-0.7447359
20155,10:52:34.916000,-1.309572,10.040849699999999,4.0867267,-0.3768387,-1.4976265,-0.7251882
20156,10:52:34.925000,-1.2928133999999998,9.5811834,4.137002900000001,-0.3768387,-1.4976265,-0.7251882
20157,10:52:34.934000,-1.2233844999999999,9.1023626,3.9574451,-0.4318165,-1.4585311,-0.7105275
20158,10:52:34.948000,-1.0845268,8.791131,3.7730997000000004,-0.524668,-1.3681231000000003,-0.6738755999999999
20159,10:52:34.954000,-1.0534035,8.688183800000001,3.6773357000000004,-0.524668,-1.3681231000000003,-0.6738755999999999
20160,10:52:34.968000,-1.0127038000000002,8.7169142,3.6246655,-0.4440338,-1.2764935,-0.6787625
20161,10:52:34.984000,-0.9169398000000001,8.6522732,3.5480542,-0.4440338,-1.2764935,-0.6787625
20162,10:52:34.993000,-0.8977870000000001,8.604391099999999,3.7323998999999994,-0.42204259999999993,-1.170203,-0.6396672
20163,10:52:35.003000,-0.8546931999999999,8.3410397,3.9598392999999996,-0.46602489999999996,-1.124999,-0.5798024
20164,10:52:35.014000,-0.7038651,8.1183891,3.978992,-0.5588764,-0.9466264999999999,-0.5419288000000001
20165,10:52:35.022000,-0.5362781,8.0393839,4.3141661,-0.5588764,-0.9466264999999999,-0.5419288000000001
20166,10:52:35.032000,-0.459667,7.8598261,4.524846599999999,-0.6175194,-0.8684358,-0.5333767
20167,10:52:35.041000,-0.5602191,7.4288883000000006,4.412324,-0.727475,-0.7755843000000001,-0.5431505
20168,10:52:35.051000,-0.8259639999999999,7.0194974000000006,3.7347938999999997,-0.9461646,-0.6277550999999999,-0.532155
20169,10:52:35.063000,-0.8666638000000001,6.1264987,3.6318479,-1.1905105,-0.3699702,-0.4356383
20170,10:52:35.071000,-0.8810283000000001,5.1497064,3.8425286,-1.1905105,-0.3699702,-0.4356383
20171,10:52:35.081000,-1.3622421,5.4753041,3.3325856,-1.1196502000000002,-0.2917795,-0.1509753
20172,10:52:35.089000,-1.5489819,5.6764078,3.3613148,-1.1196502000000002,-0.2917795,-0.1509753
20173,10:52:35.099000,-1.2976014999999999,5.767384099999999,3.4858077000000005,-1.1086546,-0.2429103,-0.033689300000000005
20174,10:52:35.109000,-0.8115995,6.2557802,3.6438181000000003,-0.8349871999999999,-0.2575711,-0.1289842
20175,10:52:35.118000,-0.35432659999999994,6.796846400000001,4.096303,-0.48923779999999994,-0.3455356,-0.22305740000000002
20176,10:52:35.130000,-0.17716329999999997,7.3450952,4.2064314000000005,-0.12394069999999999,-0.42006109999999997,-0.23893989999999998
20177,10:52:35.138000,-0.265745,7.7808208,4.242342900000001,0.1533919,-0.4090655,-0.20350970000000002
20178,10:52:35.148000,-0.49797250000000004,7.826309200000001,4.3357129,0.2034828,-0.2526842,-0.2364964
20179,10:52:35.158000,-0.8211759,7.6419630000000005,4.271071900000001,0.2034828,-0.2526842,-0.2364964
20180,10:52:35.167000,-1.0773443999999999,7.3115773,4.2758603,0.021445099999999998,-0.17205,-0.3159088
20181,10:52:35.181000,-1.3263308,7.0841379,4.3405008,-0.3768387,-0.07797689999999999,-0.3696649
20182,10:52:35.187000,-1.3670303999999998,6.9213395,4.4817529,-0.3768387,-0.07797689999999999,-0.3696649
20183,10:52:35.197000,-1.2281727,6.808816900000001,4.9773316,-0.46602489999999996,-0.086529,-0.391656
20184,10:52:35.206000,-1.091709,6.962039,5.1760416,-0.4916812,-0.1146287,-0.45885119999999996
20185,10:52:35.215000,-1.1371969,7.2636956999999995,5.2622290000000005,-0.5185592000000001,-0.1146287,-0.5443723
20186,10:52:35.225000,-1.3790008999999999,7.4360704,5.3244753,-0.5539894000000001,-0.0804203,-0.6201194999999999
20187,10:52:35.234000,-1.7524803,7.471982000000001,5.5519152,-0.5833109999999999,-0.0046731,-0.6738755999999999
20188,10:52:35.247000,-2.0613191000000004,7.2469368,5.944547200000001,-0.8520914,0.15292999999999998,-0.6812059
20189,10:52:35.255000,-2.159477,6.6484122,6.2342329,-0.8520914,0.15292999999999998,-0.6812059
20190,10:52:35.265000,-2.2001767000000005,6.1480455,6.1552280999999995,-1.2027278000000001,0.1712559,-0.7435142
20191,10:52:35.274000,-2.1139894,5.772172,5.9589119,-1.2027278000000001,0.1712559,-0.7435142
20192,10:52:35.283000,-2.2121472,5.6452851,5.6141615,-1.2858053,0.15292999999999998,-0.7691705
20193,10:52:35.295000,-2.3749461,5.5830383,5.3723574,-1.2687012,0.1138347,-0.8412525
20194,10:52:35.303000,-2.7053316,5.5351567,5.4178457,-1.2687012,0.1138347,-0.8412525
20195,10:52:35.314000,-3.1075404,5.6931671999999995,5.3196874,-1.3542223,0.0991739,-0.9072259
20196,10:52:35.322000,-3.2823095,5.7123194,5.6237378,-1.3542223,0.0991739,-0.9072259
20197,10:52:35.332000,-3.4882019,5.5447326,5.6500731,-1.4580692,0.0344222,-0.9499865
20198,10:52:35.347000,-3.6557887000000004,4.8576264,6.3252090999999995,-1.6755371,0.0332005,-1.0880418
20199,10:52:35.351000,-3.9215337999999997,4.137002900000001,7.421706200000001,-1.6755371,0.0332005,-1.0880418
20200,10:52:35.362000,-3.9023809000000003,3.299068,8.532568,-1.6816457999999999,0.0112094,-0.8449177
20201,10:52:35.370000,-3.8975928,2.2432703999999997,9.5380888,-1.6816457999999999,0.0112094,-0.8449177
20202,10:52:35.379000,-4.3357129,1.8602147,10.5819159,-1.4153087,-0.0107817,-0.7447359
20203,10:52:35.389000,-5.2741995,2.252847,11.458156599999999,-0.908291,0.1016174,-0.6445541
20204,10:52:35.399000,-6.1456513,3.246398,11.795724900000002,-0.1801402,0.30808959999999996,-0.5162725
20205,10:52:35.411000,-6.3515439,4.3141661,11.3528156,1.0147111,0.6330697,-0.20106629999999998
20206,10:52:35.419000,-5.8823004,5.3603868,10.8117504,1.0147111,0.6330697,-0.20106629999999998
20207,10:52:35.429000,-4.7283449,6.1097398,9.9786043,1.1087843000000002,0.6746085,0.0176233
20208,10:52:35.438000,-3.3541322,6.576589599999999,9.116727800000001,1.0342588,0.6367348,0.2045479
20209,10:52:35.448000,-2.4443748,6.365908599999999,8.4942617,0.6933963000000001,0.6025264,0.27296479999999995
20210,10:52:35.460000,-2.3964927000000005,6.0618582000000005,7.804761900000001,0.5296845,0.6929344,0.3438251
20211,10:52:35.467000,-3.2152746,5.4753041,7.3929772,0.5296845,0.6929344,0.3438251
20212,10:52:35.478000,-4.2758603,4.9893022,6.8782454,0.36352940000000006,0.821216,0.4831022
20213,10:52:35.495000,-5.3364458,4.1968551,6.593348,0.0287755,0.7894511,0.407355
20214,10:52:35.506000,-5.2741995,4.0532093,7.108078999999999,0.0287755,0.7894511,0.407355
20215,10:52:35.517000,-5.044365900000001,3.9909625,7.6156277999999995,0.1240704,0.6257393,0.36703790000000003
20216,10:52:35.528000,-4.8360796,4.0915146,7.8981318,0.4527156,0.39849759999999995,0.46233279999999993
20217,10:52:35.535000,-4.898325900000001,4.488935,7.9388312999999995,0.4527156,0.39849759999999995,0.46233279999999993
20218,10:52:35.544000,-5.0012726999999995,4.9031138,7.6443577000000005,0.5895493,0.3813934,0.5283062
20219,10:52:35.555000,-5.1760416,5.034789599999999,7.606051400000001,0.6359751,0.3936107,0.5735102
20220,10:52:35.564000,-5.2191353,5.0778837,7.4360704,0.5822189,0.40094109999999994,0.628488
20221,10:52:35.575000,-5.037183799999999,4.7881975,7.6108398,0.32932100000000003,0.283655,0.7958649
20222,10:52:35.583000,-4.6924334000000005,4.479359099999999,7.7161802999999995,0.32932100000000003,0.283655,0.7958649
20223,10:52:35.594000,-4.271071900000001,4.3859892,7.967560300000001,0.4160638,-0.013225200000000001,0.9571332
20224,10:52:35.603000,-3.8664693999999997,4.3764124,8.127965,0.4160638,-0.013225200000000001,0.9571332
20225,10:52:35.613000,-3.7539468,4.5870929,7.835885,0.6262012,-0.1329547,0.9864548000000001
20226,10:52:35.625000,-3.9550512,4.7379217,7.4671940999999995,0.965842,-0.2453538,0.9791244
20227,10:52:35.632000,-4.3093777,4.7570739,7.187084700000001,0.965842,-0.2453538,0.9791244
20228,10:52:35.642000,-4.3572593,4.630187,6.904581100000001,0.9438509,-0.2893361,1.0096676
20229,10:52:35.652000,-3.9718099000000002,4.4386592,6.6148949,0.9438509,-0.2893361,1.0096676
20230,10:52:35.661000,-3.2870975,4.3333187,6.2126861,0.9096424999999999,-0.3638616,1.0096676
20231,10:52:35.672000,-2.8346131000000003,4.400353400000001,5.8631482,0.9597334000000001,-0.4469391,0.9937851000000001
20232,10:52:35.681000,-2.6526616,4.704403900000001,5.6381025000000005,1.088015,-0.49947349999999996,0.9901199
20233,10:52:35.692000,-2.789125,5.0539427,5.4346042,1.3836734,-0.4542695,1.0279936
20234,10:52:35.700000,-2.8872831000000003,5.2909579,5.3077168,1.3836734,-0.4542695,1.0279936
20235,10:52:35.711000,-2.7603958,5.384327900000001,5.0898538,1.439873,-0.39929169999999997,1.107406
20236,10:52:35.726000,-2.3414285,5.5064268,4.6900395999999995,1.3836734,-0.41883940000000003,1.2002574
20237,10:52:35.729000,-1.8458501,5.48488,4.457811799999999,1.3836734,-0.41883940000000003,1.2002574
20238,10:52:35.742000,-1.4508239,5.480092,4.220796099999999,1.3580171,-0.4176175999999999,1.3297608
20239,10:52:35.747000,-1.235355,5.4202394,3.9382925,1.3580171,-0.4176175999999999,1.3297608
20240,10:52:35.756000,-1.2401432,5.2646232,3.6126949999999995,1.3958906999999998,-0.2978882,1.4116167
20241,10:52:35.767000,-1.237749,5.1114011,3.4929900000000003,1.3958906999999998,-0.2978882,1.4116167
20242,10:52:35.777000,-1.1108619,4.8935379999999995,3.5600247000000005,1.3726778999999998,-0.2380234,1.4531553999999998
20243,10:52:35.790000,-0.8906046999999999,4.7355275,3.2918858999999996,1.3103697,-0.113407,1.4922507999999999
20244,10:52:35.797000,-0.581766,4.8600205999999995,3.0165646,1.3103697,-0.113407,1.4922507999999999
20245,10:52:35.807000,-0.2920801,5.2119532,2.9016478,1.3457998,-0.0877507,1.5008028999999998
20246,10:52:35.816000,-0.095764,5.6596494,3.0859932999999997,1.4300991000000003,-0.0572075,1.4922507999999999
20247,10:52:35.826000,-0.0502761,6.0187645,3.3996203,1.615802,0.060078599999999996,1.4531553999999998
20248,10:52:35.840000,-0.2298335,6.4401255,3.6198773,1.6267976,0.12849539999999998,1.4714813
20249,10:52:35.845000,-0.2968683,6.3515439,3.5743894999999997,1.6267976,0.12849539999999998,1.4714813
20250,10:52:35.859000,-0.007182300000000001,6.2150807,3.4283495000000004,1.4264339,0.1712559,1.5557808000000002
20251,10:52:35.865000,0.4500906,6.0427051,3.1578162,1.4264339,0.1712559,1.5557808000000002
20252,10:52:35.875000,0.7637175,5.9206061,2.7771543999999997,1.3470216,0.0674089,1.6449669999999998
20253,10:52:35.884000,0.9743982,5.767384099999999,2.5521092,1.3470216,0.0674089,1.6449669999999998
20254,10:52:35.893000,0.7230178,5.736260400000001,2.3557932,1.4044428,0.025870099999999997,1.685284
20255,10:52:35.906000,0.4500906,5.5543089000000005,2.1379302000000004,1.4814118,0.0209832,1.7585878000000001
20256,10:52:35.913000,0.4381201,5.4346042,1.8123327,1.4814118,0.0209832,1.7585878000000001
20257,10:52:35.924000,0.8068113,5.4753041,1.5202527,1.5657111000000001,-0.1415068,1.8062352
20258,10:52:35.933000,1.3119662,5.7865367,1.2185962,1.5657111000000001,-0.1415068,1.8062352
20259,10:52:35.942000,1.7883917,6.2342329,1.1443793,1.7086535,-0.2380234,1.8282262999999999
20260,10:52:35.956000,2.130748,6.717841099999999,1.0246743,1.9945381999999998,-0.3308749,1.8599913000000001
20261,10:52:35.962000,2.1810241,6.8710637000000006,0.7828703,1.9945381999999998,-0.3308749,1.8599913000000001
20262,10:52:35.973000,2.1427186000000003,6.971615299999999,0.2777155,2.0079772,-0.3479791,1.9455124
20263,10:52:35.989000,2.3342462000000004,7.055409,-0.5075489000000001,1.9664384,-0.43838699999999997,2.0224813999999998
20264,10:52:35.992000,2.6071734,7.1822957999999995,-1.3837892,1.9664384,-0.43838699999999997,2.0224813999999998
20265,10:52:36,3.0476878,7.4743767000000005,-2.039772,2.0153077,-0.5739989999999999,2.0896764
20266,10:52:36.020000,4.390777099999999,7.8334908,-1.4699767,2.5467598,-0.9038659,2.0908983
20267,10:52:36.028000,4.512876,8.0250187,-0.33517379999999997,2.5724161,-0.8574402,2.0933416
20268,10:52:36.038000,4.0771503,8.290763900000002,0.3950263,2.5724161,-0.8574402,2.0933416
20269,10:52:36.047000,3.6510005,8.542143800000002,0.7732939,2.5113297,-0.7535933000000001,2.1287717999999995
20270,10:52:36.057000,3.4570785,8.8677416,0.725412,2.4539084,-0.6851764,2.182528
20271,10:52:36.068000,3.5336897000000005,8.841406800000001,0.3950263,2.4600169999999997,-0.7254935,2.2802662999999996
20272,10:52:36.076000,3.9311101,8.424833300000001,-0.49557840000000003,2.5369861,-0.813458,2.3816697999999996
20273,10:52:36.086000,4.472176599999999,7.665903999999999,-1.4699767,2.8326445,-1.0834602,2.6015811
20274,10:52:36.096000,5.1209769,7.0338621,-2.6885729,2.8326445,-1.0834602,2.6015811
20275,10:52:36.106000,6.1336808,7.3594593999999995,-4.2112193,2.9768084999999997,-1.2935976999999999,2.8104967999999997
20276,10:52:36.115000,7.783214999999999,8.8054953,-6.085799199999999,3.1173074,-1.5660433999999999,3.0047519
20277,10:52:36.125000,10.1557674,11.4940681,-8.348222699999999,3.3237797999999996,-1.8898015,3.0878294
20278,10:52:36.138000,12.894616099999999,14.0629358,-9.4255667,3.9089882000000005,-2.7169125,3.0731688
20279,10:52:36.145000,14.287981,14.570485099999999,-9.648218199999999,3.9089882000000005,-2.7169125,3.0731688
20280,10:52:36.155000,12.372701600000001,11.082283,-9.064058300000001,3.9089882000000005,-2.9209414000000002,3.2185544999999998
20281,10:52:36.165000,8.8557711,6.0714345000000005,-8.8174658,3.6194384,-2.8036554,3.5264303999999997
20282,10:52:36.175000,6.7274175000000005,1.0246743,-9.068845699999999,3.1637332000000002,-2.6057351000000004,3.8343062000000003
20283,10:52:36.185000,6.2605680999999995,-2.4324043,-9.408807800000002,3.205272,-2.5825222,3.6840334
20284,10:52:36.195000,6.8734574,-3.9191399,-9.9594507,3.205272,-2.5825222,3.6840334
20285,10:52:36.204000,8.307522800000001,-4.0484209,-10.8955431,4.2828379,-2.5031098999999997,2.9338915
20286,10:52:36.214000,10.1485853,-2.2600293,-11.5443439,4.2828379,-2.5031098999999997,2.9338915
20287,10:52:36.223000,11.458156599999999,-0.004788199999999999,-12.1141396,4.5870481,-2.2062297,2.3120312999999997
20288,10:52:36.233000,11.1110125,3.0261407000000005,-13.6559391,4.5015273,-1.8006153000000003,1.7451488000000002
20289,10:52:36.242000,10.0336676,4.026874100000001,-14.1012421,3.0782123,-1.0003826999999998,1.1965921999999998
20290,10:52:36.254000,8.803100599999999,3.3924379,-14.5585136,2.1325936000000003,-0.8049059000000001,1.134284
20291,10:52:36.262000,9.0401173,1.5202527,-13.9743538,2.1325936000000003,-0.8049059000000001,1.134284
20292,10:52:36.271000,10.536429400000001,-0.4740316,-12.0207701,1.6891057,-1.1494336,1.4348295
20293,10:52:36.281000,11.1900177,-0.9696100000000001,-9.9379044,1.6891057,-1.1494336,1.4348295
20294,10:52:36.291000,10.1078854,0.6464066999999999,-8.8581648,2.3305137000000005,-1.2337329,1.7646965000000001
20295,10:52:36.303000,8.3673754,3.2511859,-8.8007069,4.0678129,-0.6179813,1.6205323999999999
20296,10:52:36.311000,6.9021864,5.343628400000001,-9.5476656,4.0678129,-0.6179813,1.6205323999999999
20297,10:52:36.321000,6.7441759,5.764989900000001,-10.4215117,3.4752742999999997,0.19202539999999998,1.1122929
20298,10:52:36.329000,7.7425156,3.7491589,-11.295357699999999,3.4752742999999997,0.19202539999999998,1.1122929
20299,10:52:36.339000,9.001811,0.43333190000000005,-12.3894606,2.0666203000000003,0.36428920000000004,1.2136965
20300,10:52:36.353000,9.9881802,-2.9615002,-13.1196613,-0.5539894000000001,0.3972759,1.4995812
20301,10:52:36.359000,10.251530599999999,-4.6397634000000005,-12.8203993,-0.5539894000000001,0.3972759,1.4995812
20302,10:52:36.369000,9.521330800000001,-4.1681261,-11.453368199999998,-0.6480626,0.4437016,1.3077697
20303,10:52:36.379000,8.3458281,-1.8386679,-9.980998,0.056875300000000004,0.5133402,0.913151
20304,10:52:36.387000,7.536623,0.9672159,-8.97787,1.0745759,0.5231140000000001,0.3816987
20305,10:52:36.400000,7.3762178,2.5640798,-8.587632199999998,1.7086535,0.42904079999999994,-0.12043210000000001
20306,10:52:36.407000,7.6754804000000005,1.8051505,-8.659455300000001,1.5021811999999999,0.31053309999999995,-0.46251640000000005
20307,10:52:36.422000,7.8670086999999995,-0.241804,-9.2555857,-0.3768387,0.1028391,-0.6298933000000001
20308,10:52:36.425000,7.9867134,-1.6327753999999999,-9.6841288,-0.3768387,0.1028391,-0.6298933000000001
20309,10:52:36.435000,8.1112061,-1.817121,-9.794258099999999,-0.940056,0.0429744,-0.8864565000000001
20310,10:52:36.445000,8.1183891,-0.7613234,-9.6889181,-0.940056,0.0429744,-0.8864565000000001
20311,10:52:36.455000,8.1423302,0.751747,-9.4327488,-0.5442156,0.0466395,-1.1344675
20312,10:52:36.468000,8.1327534,1.7644508,-9.3441668,-0.0152067,0.0441961,-1.4582258
20313,10:52:36.475000,8.218940700000001,1.5657406,-9.7056761,-0.0152067,0.0441961,-1.4582258
20314,10:52:36.485000,8.5229921,0.751747,-10.103097,-0.8789693999999999,0.184695,-1.584064
