,time,ax,ay,az,wx,wy,wz
22731,10:53:12.001000,-6.121710299999999,-5.901453500000001,4.8887496,-0.3902777,-0.47992579999999996,0.3047297
22732,10:53:12.009000,-6.3635144,-5.8655419,4.7139807000000005,-0.3902777,-0.47992579999999996,0.3047297
22733,10:53:12.020000,-6.2964797,-6.3802729000000005,5.2287116,-0.8557565999999999,-0.5678904,0.35970759999999996
22734,10:53:12.033000,-6.4784312,-6.717841099999999,5.199982599999999,-1.0158032,-0.6338636999999999,0.4134637
22735,10:53:12.039000,-6.4856133,-6.9021864,5.1281595,-1.0158032,-0.6338636999999999,0.4134637
22736,10:53:12.051000,-6.310844400000001,-7.3977652,5.116189,-1.1465281999999999,-0.7560366999999999,0.705457
22737,10:53:12.059000,-6.0498877,-7.5749283,4.948602200000001,-1.0536768,-0.8672141,0.7689869
22738,10:53:12.067000,-5.7482309,-7.5629577999999995,4.7786212,-0.8533132,-0.9429613000000001,0.8337386
22739,10:53:12.076000,-5.343628400000001,-7.7856088,4.776227,-0.8533132,-0.9429613000000001,0.8337386
22740,10:53:12.086000,-5.063519,-7.8694024,4.5679407,-0.04575,-1.1054513000000001,0.8642818000000001
22741,10:53:12.098000,-4.7953801,-7.687450900000001,4.1848845,-0.04575,-1.1054513000000001,0.8642818000000001
22742,10:53:12.106000,-4.730739099999999,-7.273272,3.7300057,0.3733032,-1.1640944,0.9021554
22743,10:53:12.115000,-4.8552327,-6.5670128,3.3397677000000003,1.2480613999999999,-1.2618327,1.035324
22744,10:53:12.125000,-5.0491543,-5.5926147,2.983047,1.2480613999999999,-1.2618327,1.035324
22745,10:53:12.135000,-5.317293599999999,-4.603851799999999,2.9495296000000004,1.6316845,-1.3497972,1.1293971999999999
22746,10:53:12.151000,-5.317293599999999,-3.8736517,3.4355318999999995,2.0800593000000003,-1.7126508000000003,1.2393528
22747,10:53:12.154000,-4.8121386,-3.5743894999999997,4.4314770999999995,2.0800593000000003,-1.7126508000000003,1.2393528
22748,10:53:12.165000,-4.0412387999999995,-3.8257697,5.422633599999999,1.8296046000000001,-2.3516154,1.2870002
22749,10:53:12.174000,-3.272733,-4.3644419,6.4736428,1.8296046000000001,-2.3516154,1.2870002
22750,10:53:12.187000,-2.7819428,-4.369229799999999,6.823181599999999,1.1698707,-2.4456884999999997,1.3493085
22751,10:53:12.204000,-2.6263263,-4.2112193,7.196661,0.9878331,-1.7199811999999999,1.1061842
22752,10:53:12.205000,-2.9854412,-4.1082735,7.1583557,0.9878331,-1.7199811999999999,1.1061842
22753,10:53:12.212000,-3.7946465,-4.1274261,6.7776933,0.9878331,-1.7199811999999999,1.1061842
22754,10:53:12.222000,-4.5655465,-4.2614961,6.418578599999999,1.160097,-1.2117417,0.9021554
22755,10:53:12.232000,-5.1353421,-4.5918813,6.121710299999999,1.3714561,-0.7462628000000001,0.6626964
22756,10:53:12.242000,-5.2933525999999995,-4.9198732000000005,5.872724099999999,1.3714561,-0.7462628000000001,0.6626964
22757,10:53:12.253000,-4.9940901,-5.0898538,5.9230003,1.277383,-1.0822383999999998,0.5771754
22758,10:53:12.264000,-4.2974076,-5.0754895,6.1648045,1.277383,-1.0822383999999998,0.5771754
22759,10:53:12.271000,-3.4834137000000003,-4.7618623,6.6699591,1.3164784,-1.3840055,0.5136455
22760,10:53:12.281000,-2.9088298999999997,-4.3213482,7.4360704,1.8271612000000002,-1.8788061000000003,0.39635940000000003
22761,10:53:12.291000,-2.5712618999999997,-3.7228234,8.3147049,2.1961236,-1.9704359,0.3462685
22762,10:53:12.300000,-2.5257742000000003,-3.1338751,8.9682941,2.532099,-1.9606618999999998,0.290069
22763,10:53:12.313000,-2.6095676,-2.5401387000000004,9.2962847,2.532099,-1.9606618999999998,0.290069
22764,10:53:12.319000,-2.7675784,-2.0972304,9.3154383,3.0305647999999996,-1.8238282,0.2131
22765,10:53:12.330000,-2.837007,-1.7668449000000002,8.7408552,3.1857243,-1.7761807,0.2204304
22766,10:53:12.339000,-2.7220902000000002,-1.7189629000000002,7.852644000000001,3.2810192000000002,-1.7749591,0.2534171
22767,10:53:12.348000,-2.5185918999999997,-1.6375635,7.141596300000001,3.3152277000000003,-1.8140545,0.2949559
22768,10:53:12.359000,-2.1762357000000003,-1.333513,6.437731299999999,3.3152277000000003,-1.8140545,0.2949559
22769,10:53:12.368000,-1.7261453000000002,-1.0941031,5.764989900000001,3.3127842000000003,-1.8751408999999999,0.3438251
22770,10:53:12.379000,-1.2569019,-0.5937365,5.4178457,3.4129660000000004,-2.1048259999999996,0.47699359999999996
22771,10:53:12.388000,-0.581766,0.0526702,5.5806441,3.4557266,-2.2929722999999997,0.5393018
22772,10:53:12.398000,0.27053309999999997,0.9648218000000001,6.2055039,3.4752742999999997,-2.4994447,0.5930579
22773,10:53:12.407000,1.1563497999999999,2.3222756,7.1176553,3.4752742999999997,-2.4994447,0.5930579
22774,10:53:12.416000,2.2552409,3.8018289,8.62115,3.4471745000000005,-2.6814823,0.6455922
22775,10:53:12.428000,3.2080922000000003,4.852837999999999,9.8086233,3.390975,-2.8170943,0.6089404
22776,10:53:12.436000,3.5959363,5.3771458,10.3042011,3.390975,-2.8170943,0.6089404
22777,10:53:12.447000,3.2870975,5.3053231,10.565157899999999,3.2345936,-2.5446486,0.5600712
22778,10:53:12.456000,2.279182,4.8648086,10.651345300000001,3.2345936,-2.5446486,0.5600712
22779,10:53:12.465000,1.1108619,4.242342900000001,10.8261147,2.8754051,-2.2844203,0.737222
22780,10:53:12.475000,0.28010959999999996,3.5360837,11.003277800000001,2.6542721,-2.2392163,0.7347785
22781,10:53:12.485000,0.16279870000000002,2.6430849999999997,10.797385199999999,2.6542721,-2.2392163,0.7347785
22782,10:53:12.495000,0.6392244,1.9200671999999999,10.5244579,2.5333209,-2.2893071,0.7066786999999999
22783,10:53:12.504000,1.5346173,1.5801051000000002,10.5890989,2.9145005,-2.5605311,0.7848694
22784,10:53:12.513000,2.497045,1.9559786,10.0097265,3.4178529,-2.5935178,0.8093039000000001
22785,10:53:12.530000,3.4331373999999997,2.4443748,8.8916826,4.1032434,-2.5189923999999997,0.750661
22786,10:53:12.533000,4.0723619,3.4379258000000004,7.357065700000001,4.932797900000001,-2.4310278999999997,0.6761355
22787,10:53:12.545000,4.4482355,5.0204248,5.3077168,5.779456099999999,-2.3870456,0.6553661
22788,10:53:12.552000,5.018031099999999,6.581377499999999,3.6294537000000004,5.779456099999999,-2.3870456,0.6553661
22789,10:53:12.565000,5.870329900000001,8.0298071,1.3071779,7.0549417000000005,-2.5299878,0.5796188
22790,10:53:12.572000,6.997950599999999,9.2795267,0.0263351,7.0549417000000005,-2.5299878,0.5796188
22791,10:53:12.581000,7.701815600000001,10.548399,-0.33517379999999997,7.1025891,-2.9111674,1.0707541999999999
22792,10:53:12.594000,7.565352000000001,11.0774946,-0.30883879999999997,7.1025891,-2.9111674,1.0707541999999999
22793,10:53:12.601000,7.2158136,10.306594800000001,-0.6104951999999999,6.273035,-2.9588148999999997,1.5240158000000001
22794,10:53:12.611000,8.9946289,11.0248251,-0.193922,3.372649,-2.8806243,1.7182707999999998
22795,10:53:12.620000,13.9025307,18.9038048,-1.1850789,2.1277068,-2.5739701,1.8404436999999998
22796,10:53:12.631000,16.5001297,18.9061985,6.6412301,0.9817245000000001,-1.7590766,2.3828917
22797,10:53:12.640000,2.9255888,9.0257521,-2.8681302000000004,-1.6828674,-0.2856709,3.2600932
22798,10:53:12.650000,0.8283582,6.2701445,-6.0379171,-4.891128500000001,-0.2551276,2.9949779999999997
22799,10:53:12.664000,5.0611248,3.1578162,-4.3428949999999995,-3.2173595,-1.4328749,1.2662308
22800,10:53:12.668000,10.0336676,5.9397588,-3.5696013,-3.2173595,-1.4328749,1.2662308
22801,10:53:12.678000,10.9075136,9.5500603,-2.1403244,1.349465,-2.5165488999999996,0.9278117
22802,10:53:12.688000,8.4344101,12.782093,-5.6572556,1.349465,-2.5165488999999996,0.9278117
22803,10:53:12.699000,3.2416098,9.5309067,-7.0961084,1.0977888,-1.833602,1.0182197
22804,10:53:12.712000,3.6294537000000004,6.6148949,-5.37954,1.7416401999999997,-2.5263226000000003,-0.694645
22805,10:53:12.717000,8.1207829,6.4353375,-4.0077214,2.9474871,-3.3570987999999997,-2.2413545
22806,10:53:12.729000,13.751703299999999,9.310649900000001,-3.3517382000000007,3.5497997000000003,-3.3497684000000003,-2.3207668999999997
22807,10:53:12.738000,17.7187233,12.7270288,-2.5473211,3.5497997000000003,-3.3497684000000003,-2.3207668999999997
22808,10:53:12.745000,17.347639100000002,15.463483800000002,-2.8274305,3.6964072999999997,-2.5788572,-1.2028843
22809,10:53:12.758000,14.199399900000001,15.4443312,-3.3780732,1.5253941,-0.054764,1.0206633
22810,10:53:12.765000,11.2163534,13.5410233,-3.8928044,-0.2900959,0.8248812,0.6407053
22811,10:53:12.775000,9.542878199999999,11.3815451,-4.3644419,-1.7488408,1.3746595,-0.0544587
22812,10:53:12.784000,8.3410397,10.1557674,-4.7283449,-1.7488408,1.3746595,-0.0544587
22813,10:53:12.794000,7.8909497,9.588364599999998,-4.759468599999999,-2.8202974999999997,1.665431,-0.0593456
22814,10:53:12.804000,8.724096300000001,9.186157199999998,-4.034056700000001,-2.8202974999999997,1.665431,-0.0593456
22815,10:53:12.814000,10.467,8.8773184,-3.0333229999999998,-2.9730136000000003,1.204839,-0.0031460999999999998
22816,10:53:12.824000,11.953735400000001,8.961112,-1.9583727,-3.0487609,1.3294553999999998,-0.1912924
22817,10:53:12.833000,12.4684658,8.9946289,-0.9720040999999999,-3.0487609,1.3294553999999998,-0.1912924
22818,10:53:12.843000,11.843606900000001,9.0401173,-0.27053309999999997,-3.2454593,2.2970650000000004,-0.3000264
22819,10:53:12.852000,10.5962811,8.8892889,0.122099,-3.2454593,2.2970650000000004,-0.3000264
22820,10:53:12.862000,9.293891,8.5014448,0.4069968,-3.3932886,2.8089697,-0.27437
22821,10:53:12.874000,8.1854239,8.1495123,0.6918946,-3.4861400000000002,3.2206926,-0.27070479999999997
22822,10:53:12.883000,7.5797167000000005,8.1471176,1.1946553,-3.4727010999999997,3.462595,-0.2633744
22823,10:53:12.892000,7.6898451,8.0944481,1.9775256,-3.3529716,3.5273466,-0.25848760000000004
22824,10:53:12.902000,7.974742900000001,8.4751101,2.7460313,-2.8056368999999997,3.2512357000000005,-0.32690440000000004
22825,10:53:12.914000,8.257247,8.606784800000002,3.4570785,-2.5050914,3.1070716,-0.3574476
22826,10:53:12.920000,8.3673754,8.9299879,3.7467644,-2.5050914,3.1070716,-0.3574476
22827,10:53:12.930000,8.1973944,9.049693099999999,4.512876,-2.3474882000000004,3.0252159,-0.3769953
22828,10:53:12.942000,7.711391900000001,8.7336721,5.4082689,-2.6529207,3.1571627,-0.47351190000000004
22829,10:53:12.950000,6.6508064,8.2428818,6.6484122,-3.1074040000000003,3.3624132000000007,-0.5199376
22830,10:53:12.960000,5.0730948,7.464799900000001,7.823914500000001,-3.6510737,3.5077989,-0.5236028
22831,10:53:12.968000,2.9519238,6.2031102,8.4152575,-3.6510737,3.5077989,-0.5236028
22832,10:53:12.979000,1.0294625,4.472176599999999,8.0585365,-4.6309004,3.3098788,-0.6445541
22833,10:53:12.991000,-0.5219135,2.3174875,7.0242853,-4.8801332,3.1327281000000005,-0.9011173000000001
22834,10:53:12.998000,-1.5010998,-0.44530240000000004,6.2270508,-4.866694,2.9910072999999997,-1.3348311000000002
22835,10:53:13.009000,-1.9464022,-3.3517382000000007,6.248597599999999,-4.5869179,2.7344444,-1.8626182
22836,10:53:13.017000,-1.5489819,-5.7865367,6.2150807,-4.5869179,2.7344444,-1.8626182
22837,10:53:13.027000,-1.0941031,-6.638835899999999,7.0865326,-3.9956013999999995,2.3337171000000003,-2.2230284
22838,10:53:13.039000,-0.9815805000000001,-6.4736428,8.3745575,-2.1153598,1.6104531000000002,-2.1313987
22839,10:53:13.047000,-0.9576395000000001,-5.7530193,9.5907602,-2.1153598,1.6104531000000002,-2.1313987
22840,10:53:13.056000,-1.3909714,-4.9294496,10.3401117,-1.2552621000000002,1.3746595,-1.9200395000000001
22841,10:53:13.067000,-1.7812095000000001,-4.400353400000001,10.71838,-0.682271,1.1327569,-1.6439286
22842,10:53:13.076000,-2.1690536,-4.3596539000000005,10.8596315,-0.39882979999999996,0.9458324,-1.389809
22843,10:53:13.085000,-2.52338,-4.369229799999999,11.163682000000001,-0.3194174,0.8089987,-1.1576803999999998
22844,10:53:13.095000,-2.5257742000000003,-3.6510005,11.249870300000001,-0.07384980000000001,0.5341096,-0.37943879999999996
22845,10:53:13.108000,-2.0086489,-2.1762357000000003,11.1325588,-0.07384980000000001,0.5341096,-0.37943879999999996
22846,10:53:13.115000,-0.8738461,-0.3184151,10.9051199,0.2694562,0.3679544,-0.025137200000000002
22847,10:53:13.124000,0.5075489000000001,1.7907859,10.5819159,1.7159839,0.0930653,0.0799315
22848,10:53:13.134000,1.8506383999999998,4.3428949999999995,10.5268517,1.7159839,0.0930653,0.0799315
22849,10:53:13.144000,2.8609481,6.8183932,10.7854147,2.6738197999999995,0.035644,-0.0483501
22850,10:53:13.157000,3.5648129,8.3649807,10.8739967,2.4856734,0.22379029999999997,-0.19984449999999998
22851,10:53:13.163000,3.4905961000000003,9.042511,10.5555811,1.7782921000000003,0.5719831999999999,-0.3207957
22852,10:53:13.173000,2.7196963,8.872530000000001,10.265894900000001,1.7782921000000003,0.5719831999999999,-0.3207957
22853,10:53:13.183000,1.6782633000000002,7.900525999999999,10.105490699999999,0.7324917,0.9690451999999999,-0.32446090000000005
22854,10:53:13.193000,0.9672159,6.617289100000001,9.5835772,-1.2442666,1.3917636999999998,-0.2633744
22855,10:53:13.205000,0.7708998,5.1736474,9.104758300000002,-1.2442666,1.3917636999999998,-0.2633744
22856,10:53:13.211000,0.7134414000000001,3.9933567,8.774372099999999,-2.2240937,1.236604,-0.46251640000000005
22857,10:53:13.223000,0.7469588,3.1889396,8.4607449,-2.340158,1.1498613000000002,-0.5443723
22858,10:53:13.231000,0.7924467,2.6574495,8.2045765,-2.340158,1.1498613000000002,-0.5443723
22859,10:53:13.240000,0.7541412,2.2815759,8.0752954,-2.3499317000000004,1.0912182,-0.6066805000000001
22860,10:53:13.250000,0.5410663,2.0086489,7.895737599999999,-2.3279407,1.0838878,-0.6518844
22861,10:53:13.259000,0.2058925,1.7955738999999997,7.687450900000001,-2.2436414,1.2060608999999998,-0.5895762
22862,10:53:13.272000,-0.387844,1.5992579,7.395371000000001,-2.2021024,1.2952471,-0.5040551
22863,10:53:13.279000,-1.1515615,1.4101242,7.1559610000000005,-2.2021024,1.2952471,-0.5040551
22864,10:53:13.289000,-1.8243033,1.2329608,7.026680000000001,-2.1385725,1.3832116,-0.4429687
22865,10:53:13.299000,-2.2552409,1.1826848,6.9883742,-2.0225081,1.4614022,-0.43319480000000005
22866,10:53:13.309000,-2.1810241,1.1611378,7.07935,-1.6572112,1.457737,-0.5236028
22867,10:53:13.322000,-1.5944698,1.5394055,7.3929772,-1.6572112,1.457737,-0.5236028
22868,10:53:13.328000,-0.7373824000000001,2.0972304,7.850249799999999,-1.4519606000000003,1.3441162,-0.5749155
22869,10:53:13.341000,0.0646407,2.5952029,7.9938955,-1.2320493000000001,1.1437526000000002,-0.604237
22870,10:53:13.347000,0.3830558,2.8394009999999996,7.816732400000001,-1.2320493000000001,1.1437526000000002,-0.604237
22871,10:53:13.358000,0.1436459,2.8513715,7.5150762,-1.3896524,1.3099077,-0.5993501
22872,10:53:13.365000,-0.6368303000000001,2.5760503,7.2158136,-1.3896524,1.3099077,-0.5993501
22873,10:53:13.375000,-1.5370114,2.0756836,6.8303633,-1.5338165000000001,1.4809499,-0.604237
22874,10:53:13.385000,-2.2241178,1.649534,6.5718012,-1.7537278000000003,1.6190053999999998,-0.6372237
22875,10:53:13.395000,-2.4922566,1.1467732,6.622077,-1.7537278000000003,1.6190053999999998,-0.6372237
22876,10:53:13.406000,-2.4132514,0.7206236999999999,6.495190099999999,-1.7903796000000003,1.5066063,-0.7019753000000001
22877,10:53:13.416000,-2.2648175,0.33517379999999997,6.4353375,-1.8123707999999998,1.3783246999999998,-0.8107093000000001
22878,10:53:13.426000,-1.9727374,0.019152799999999998,6.6101065000000006,-1.8514662,1.3050208,-0.8998955
22879,10:53:13.437000,-1.8889439,-0.5506426999999999,7.2134194,-2.0225081,1.3209033000000001,-0.9841949000000001
22880,10:53:13.444000,-1.7500861,-1.0342506999999999,7.081744199999999,-2.0225081,1.3209033000000001,-0.9841949000000001
22881,10:53:13.454000,-1.7548743000000002,-1.5848933,7.026680000000001,-2.2387542999999996,1.5371493999999999,-1.1136981000000001
22882,10:53:13.463000,-1.9918901000000002,-2.0900483,6.4353375,-2.2387542999999996,1.5371493999999999,-1.1136981000000001
22883,10:53:13.473000,-2.3294580000000003,-2.4587395,6.1073461,-2.3071711,1.6837571,-1.1540152
22884,10:53:13.486000,-2.6885729,-2.6861787,6.2246566,-2.3865836,1.854799,-1.1760063
22885,10:53:13.493000,-3.2296392999999997,-2.7627900000000003,6.0977697,-2.4708829,2.0527191000000005,-1.1882236000000002
22886,10:53:13.505000,-3.809011,-2.8753126,6.394638099999999,-2.6492555,2.581728,-1.2774098999999999
22887,10:53:13.513000,-4.2471309,-3.2559742999999997,6.229445,-2.6492555,2.581728,-1.2774098999999999
22888,10:53:13.531000,-4.752286,-4.7498922,6.0283403,-2.6260426,2.8089697,-1.3470483999999998
22889,10:53:13.541000,-4.7953801,-5.3771458,5.7602015,-2.5881689,2.9714598999999997,-1.3775917
22890,10:53:13.553000,-4.534422900000001,-6.119316599999999,5.678801999999999,-2.5502954,2.8761648999999996,-1.3055097
22891,10:53:13.561000,-4.824109099999999,-7.2445431,6.4712491,-2.5502954,2.8761648999999996,-1.3055097
22892,10:53:13.571000,-5.2406821,-8.386528,6.6412301,-2.3157234,2.7845352,-1.2236538000000001
22893,10:53:13.580000,-5.5782499,-9.8565054,6.095375499999999,-2.0652688,2.695349,-1.1344675
22894,10:53:13.591000,-5.6117672999999995,-11.5587091,5.0587306,-1.842914,2.5597369999999997,-1.1454631000000002
22895,10:53:13.604000,-6.035522900000001,-12.4612837,3.7443705,-1.6095636999999998,2.1675617999999996,-1.2603056000000001
22896,10:53:13.609000,-7.069773700000001,-12.3224258,2.4347985,-1.4360781,2.0808188999999997,-1.2493101
22897,10:53:13.621000,-8.070507000000001,-11.8220596,2.183418,-0.9315039,2.0453889,-1.3678179
22898,10:53:13.628000,-8.8270416,-10.6824694,1.9224613000000002,-0.9315039,2.0453889,-1.3678179
22899,10:53:13.638000,-9.4303551,-8.695366900000002,2.0038607,-0.24000500000000002,1.9500939999999998,-1.4765518
22900,10:53:13.648000,-9.5835772,-6.698688499999999,2.300729,0.39407259999999994,1.7741648999999997,-1.3812568
22901,10:53:13.657000,-8.9204121,-5.451363099999999,2.5497153,0.9304118,1.5689144,-1.2138799
22902,10:53:13.670000,-7.9196786999999995,-4.8552327,2.5999912999999997,1.0648021,1.0484575999999999,-0.9768645
22903,10:53:13.677000,-7.108078999999999,-4.9055085,2.4563452999999997,1.0648021,1.0484575999999999,-0.9768645
22904,10:53:13.689000,-6.6196828,-5.4417862999999995,2.0230136,0.0678709,0.8334333,-0.5443723
22905,10:53:13.698000,-6.0810108,-6.3754849,1.4987059,0.0678709,0.8334333,-0.5443723
22906,10:53:13.706000,-5.843995099999999,-7.3450952,0.9049693000000001,-0.8716391,0.6819388000000001,-0.2206139
22907,10:53:13.719000,-5.7985072,-8.0585365,0.4716375,-1.0720028,0.5805353,-0.06789780000000001
22908,10:53:13.725000,-6.0738287,-8.3027344,0.4429083,-1.0720028,0.5805353,-0.06789780000000001
22909,10:53:13.735000,-6.2222624,-8.585238499999999,0.3926322,-1.0170249,0.3386329,0.1483484
22910,10:53:13.745000,-6.3730912,-8.700155300000002,0.4237555,-1.0170249,0.3386329,0.1483484
22911,10:53:13.754000,-6.399426,-8.5756617,0.7014709,-0.4098254,-0.1170722,0.30961669999999997
22912,10:53:13.768000,-6.365908599999999,-8.2261238,0.8570873999999999,-0.4098254,-0.1170722,0.30961669999999997
22913,10:53:13.774000,-6.4712491,-7.3929772,1.0055215,0.32932100000000003,-0.443274,0.41835059999999996
22914,10:53:13.786000,-6.4497018,-6.823181599999999,1.721357,0.5687799,-0.6045423000000001,0.46599799999999997
22915,10:53:13.793000,-6.5334954000000005,-6.1648045,2.7029376,0.5687799,-0.6045423000000001,0.46599799999999997
22916,10:53:13.803000,-6.8471227,-5.9804587,3.6438181000000003,0.739822,-0.8611054,0.5331931
22917,10:53:13.812000,-7.0578032,-6.3443613,4.338107099999999,0.739822,-0.8611054,0.5331931
22918,10:53:13.822000,-7.167931599999999,-6.617289100000001,4.5487876,0.7886913000000001,-0.9710610999999999,0.5331931
22919,10:53:13.835000,-7.2948189,-6.9811921,5.314899,0.9401857,-1.1677594,0.5527408
22920,10:53:13.842000,-7.110473599999999,-7.1511731,4.235160400000001,0.9401857,-1.1677594,0.5527408
22921,10:53:13.855000,-6.8830342,-6.8399401,4.5368170999999995,1.1332189,-1.1958592,0.6480357
22922,10:53:13.861000,-6.3826675,-6.528707499999999,4.687645400000001,1.1332189,-1.1958592,0.6480357
22923,10:53:13.871000,-6.2414155,-6.2749329000000005,5.0611248,1.1148930000000001,-1.3314712,0.7494392
22924,10:53:13.884000,-6.193533400000001,-6.152833900000001,5.362781,1.1148930000000001,-1.3314712,0.7494392
22925,10:53:13.891000,-6.4808254000000005,-6.0427051,5.7937188,0.9805027,-1.2801585,0.8019736
22926,10:53:13.902000,-6.617289100000001,-5.9948235,6.3252090999999995,0.6848443000000001,-1.2288461000000002,0.8960468
22927,10:53:13.909000,-6.557436500000001,-6.045099700000001,7.321154099999999,0.6848443000000001,-1.2288461000000002,0.8960468
22928,10:53:13.920000,-6.3922434,-5.9589119,7.251725200000001,0.5968796999999999,-1.3766753999999999,0.8630601000000001
22929,10:53:13.929000,-6.5191312,-5.5375504,7.4384651,0.5968796999999999,-1.3766753999999999,0.8630601000000001
22930,10:53:13.938000,-6.607712299999999,-5.6117672999999995,7.483952499999999,0.5858842,-1.4194357,0.8251864
22931,10:53:13.950000,-6.8471227,-5.9253945,7.0051331999999995,0.5712234,-1.4182141000000001,0.737222
22932,10:53:13.958000,-7.3067894,-6.1887455000000005,6.334785500000001,0.1827134,-1.3803403,0.7494392
22933,10:53:13.968000,-7.6108398,-6.5239191,5.7075315,-0.06163250000000001,-1.4609747,0.9229248
22934,10:53:13.978000,-7.893343400000001,-6.423367,5.927788700000001,-0.06163250000000001,-1.4609747,0.9229248
22935,10:53:13.987000,-8.1495123,-6.4401255,5.1281595,-0.2546657,-1.5342784,1.0951886999999998
22936,10:53:14.001000,-8.101630199999999,-6.569407000000001,4.7211623,-0.3658431,-1.4084401000000002,1.1599403999999998
22937,10:53:14.007000,-7.9651666,-6.6484122,4.9533906,-0.3536258,-1.2789369,1.0780845
22938,10:53:14.018000,-7.9938955,-6.971615299999999,4.879172799999999,-0.07751489999999998,-1.4817441,1.0292153
22939,10:53:14.035000,-8.312311200000002,-7.3810066999999995,4.6469455,-0.3340781,-1.4817441,1.197814
22940,10:53:14.050000,-7.9388312999999995,-7.5821104,4.9342375,-0.6040803000000001,-1.6185777,1.2198051
22941,10:53:14.056000,-7.230177900000001,-7.7616682,4.675674900000001,-0.7079273,-1.8116109,1.2332442
22942,10:53:14.066000,-6.5095544,-8.1231766,4.843262200000001,-0.7079273,-1.8116109,1.2332442
22943,10:53:14.073000,-5.987640900000001,-8.2668228,4.7666507000000005,-0.6358453000000001,-1.870254,1.2417963
22944,10:53:14.084000,-5.5064268,-8.3649807,4.1058793,-0.48312910000000003,-1.8384890999999999,1.0719758
22945,10:53:14.094000,-5.384327900000001,-8.300340700000001,3.1697867000000004,-0.48312910000000003,-1.8384890999999999,1.0719758
22946,10:53:14.103000,-5.4705157,-8.233305900000001,2.4324043,-0.1911358,-1.9863183,0.958355
22947,10:53:14.115000,-5.4082689,-8.1543007,1.6279871000000001,-0.1092799,-2.1659126,0.9058206
22948,10:53:14.122000,-5.3460225999999995,-8.1351471,0.9432749,-0.1092799,-2.1659126,0.9058206
22949,10:53:14.133000,-5.33884,-8.108812299999999,0.4141791,0.4453852,-2.583744,0.7103439
22950,10:53:14.142000,-4.7977738,-7.589293,-0.5865541999999999,0.4453852,-2.583744,0.7103439
22951,10:53:14.152000,-4.3333187,-6.5095544,-1.4867353,1.9065737,-3.0993137,0.5490755999999999
22952,10:53:14.165000,-4.1824902999999996,-5.3747516,-1.3047838,1.9065737,-3.0993137,0.5490755999999999
22953,10:53:14.172000,-3.9047748999999996,-3.8497107,-0.5985246999999999,3.1906114,-3.3082294,0.5600712
22954,10:53:14.185000,-3.6342421000000003,-2.159477,0.038305599999999995,6.0079198,-3.7883692000000004,0.5893927
22955,10:53:14.191000,-3.0979638,-0.9001811,0.5027608,6.0079198,-3.7883692000000004,0.5893927
22956,10:53:14.201000,-2.252847,0.09097569999999999,0.7014709,7.1380196,-3.9667418,0.5869492
22957,10:53:14.209000,-1.333513,0.9193339,0.6727418000000001,7.8735003,-4.0962448,0.6517009
22958,10:53:14.219000,-0.4836079000000001,2.082866,0.7325941999999999,7.7415538,-4.2587347,1.0878583
22959,10:53:14.233000,0.459667,3.1554222000000003,1.4197004999999998,7.0390592000000005,-4.284390900000001,1.2943306
22960,10:53:14.239000,1.4484297,3.5887538999999995,1.8338796000000002,7.0390592000000005,-4.284390900000001,1.2943306
22961,10:53:14.249000,2.475498,3.5217192,1.8937321,4.650578,-3.8861077000000006,1.2833351
22962,10:53:14.258000,3.2320333,3.3732852999999996,1.8937321,4.650578,-3.8861077000000006,1.2833351
22963,10:53:14.268000,3.6414242,2.9686825,1.2138082000000001,3.2663586,-3.4756063999999998,1.3248738000000002
22964,10:53:14.281000,3.9047748999999996,2.3174875,1.1970493999999998,1.0721325000000002,-2.9979103,1.7756919999999998
22965,10:53:14.287000,4.2040377,2.0900483,1.4867353,1.0721325000000002,-2.9979103,1.7756919999999998
22966,10:53:14.297000,5.1592832,2.0445604,3.2104863999999997,0.40995509999999996,-3.0089059,2.0273683
22967,10:53:14.305000,6.459278599999999,1.3885771999999998,5.1951947,0.051988400000000004,-3.2703558999999998,2.1580932
22968,10:53:14.315000,6.8447285,0.8546931999999999,5.4058752,0.24013470000000003,-4.4151163,1.789131
22969,10:53:14.333000,7.7999735,-0.6464066999999999,4.3237424,0.6836225,-4.9001427,1.0829715
22970,10:53:14.338000,8.233305900000001,-1.5992579,3.4642611000000003,0.6836225,-4.9001427,1.0829715
22971,10:53:14.345000,8.348222699999999,-1.6638986,1.2473254999999999,2.4734561,-5.0943974999999995,-0.0813368
22972,10:53:14.354000,9.243615199999999,-0.6966828,0.5123371,3.7904804,-5.2581096,-0.3293478
22973,10:53:14.363000,10.9745493,0.1149167,0.7948408,5.565653299999999,-5.4352602999999995,-0.5150507000000001
22974,10:53:14.374000,13.552992800000002,2.1163833,3.126693,5.565653299999999,-5.4352602999999995,-0.5150507000000001
22975,10:53:14.383000,15.4227839,7.1032910000000005,2.2648175,7.653589200000001,-5.5061207,-0.5565895000000001
22976,10:53:14.395000,22.032890300000002,25.4396935,9.650611900000001,11.1257439,-5.0516372,0.012736399999999998
22977,10:53:14.403000,21.5923767,36.565071100000004,8.156694400000001,11.1257439,-5.0516372,0.012736399999999998
22978,10:53:14.414000,16.7419338,31.266929600000005,4.2519193,10.318181,-4.3454776,1.2943306
22979,10:53:14.423000,11.3528156,16.7060204,-2.8801007000000003,1.3238087,-2.2477683999999996,4.329106299999999
22980,10:53:14.433000,12.2218742,11.0391893,-8.491867999999998,-4.1238828000000005,-2.3259592000000002,3.5215435
22981,10:53:14.447000,12.3846731,2.9351648999999997,-10.3161716,-5.3957028,-2.2990811,1.0206633
22982,10:53:14.451000,10.6393747,1.8745793999999998,-9.5021782,-5.3957028,-2.2990811,1.0206633
22983,10:53:14.460000,10.586705199999999,7.9316492,-5.7147136,-2.7250028,-2.5910745,-0.1399798
22984,10:53:14.470000,11.6903839,13.6822739,-4.723557,1.2443963,-3.47805,0.40246809999999994
22985,10:53:14.480000,15.0062113,14.936781900000001,-6.1480455,4.1337867,-3.7248392,0.8459558
22986,10:53:14.490000,18.7242451,11.3935156,-9.0281458,4.9584541,-3.5293627,0.53808
22987,10:53:14.500000,20.2564697,9.8181992,-8.5636911,4.6652389,-2.9820278,-0.1778534
22988,10:53:14.511000,19.6531563,11.3049335,-6.418578599999999,4.7165517999999995,-2.145143,-0.5761371999999999
22989,10:53:14.519000,18.6835461,11.640108099999999,-4.1633377000000005,4.8130684,-1.3351364,-0.5529243
22990,10:53:14.530000,16.313388800000002,10.1126728,-4.0627856,4.1337867,-0.6546331999999999,-0.5553678000000001
22991,10:53:14.540000,13.8474674,7.981925,-5.2382879,2.5699728,0.003879,-0.6079022
22992,10:53:14.550000,11.9417648,7.230177900000001,-6.119316599999999,0.7190526999999999,0.5609877,-0.49305959999999993
22993,10:53:14.563000,11.7286901,7.3450952,-6.459278599999999,-1.5460337,1.1486393999999998,-0.4612946
22994,10:53:14.568000,13.083749800000001,8.216547,-6.286903400000001,-1.5765768999999998,1.2928035,-0.7190795999999999
22995,10:53:14.579000,15.279137599999999,9.2172804,-6.6148949,-1.363996,1.4723978000000002,-0.771614
22996,10:53:14.599000,15.7148638,10.263501199999999,-7.5078936,-1.8930049,2.6709144,-0.3000264
22997,10:53:14.607000,13.7756443,9.811017,-7.5150762,-1.8930049,2.6709144,-0.3000264
22998,10:53:14.616000,12.7677288,9.2244616,-6.983585799999999,-2.8826058,4.035586400000001,-0.8314787
22999,10:53:14.626000,12.1261101,8.783947900000001,-6.3204203,-3.3358673999999997,4.3691187000000005,-1.0159597
23000,10:53:14.635000,11.7167187,8.2356997,-5.0994306,-3.3358673999999997,4.3691187000000005,-1.0159597
23001,10:53:14.646000,11.5204029,7.6323872,-3.7276117999999996,-3.9088585,4.8700275,-0.9903035
23002,10:53:14.655000,11.273811300000002,7.1846905,-2.619144,-3.9088585,4.8700275,-0.9903035
23003,10:53:14.665000,10.9338493,6.555042299999999,-1.7117807,-4.1299915,5.3978148,-1.3067313
23004,10:53:14.677000,10.2491369,5.7410488,-1.1132559,-4.261938099999999,5.5395355,-1.4655561000000001
23005,10:53:14.685000,9.0927868,4.950995900000001,-0.30883879999999997,-4.261938099999999,5.5395355,-1.4655561000000001
23006,10:53:14.694000,7.783214999999999,4.2447371,1.2090199,-4.4818492,5.5847392,-1.5547425
23007,10:53:14.704000,6.2150807,3.44032,3.0620522,-4.7787294000000005,5.538313400000001,-1.610942
23008,10:53:14.714000,4.1058793,2.8394009999999996,4.472176599999999,-5.2942995999999996,5.5126572,-1.7929796999999998
23009,10:53:14.726000,1.4987059,2.0972304,5.5327621,-5.3895946,5.434466400000001,-1.9420307
23010,10:53:14.733000,-1.4340651000000002,1.2329608,7.270877799999999,-5.3895946,5.434466400000001,-1.9420307
23011,10:53:14.746000,-4.9557843,0.3830558,8.467927,-5.3810425,5.201116099999999,-2.1509464
23012,10:53:14.752000,-7.8454614000000005,-1.1012853,7.8670086999999995,-5.3126254,4.8248234000000005,-2.3488667000000003
23013,10:53:14.764000,-8.793524699999999,-3.8880162000000005,8.051354400000001,-5.1391397,2.970238,-2.6188688
23014,10:53:14.776000,-8.676214199999999,-5.513609400000001,9.782286599999999,-4.8654722999999995,2.2530827999999996,-2.2718976000000004
23015,10:53:14.781000,-6.8399401,-7.594080900000001,11.343239800000001,-4.52461,1.9244375,-2.0312171
23016,10:53:14.794000,-3.2392156,-10.428693800000001,11.8196659,-3.9723885,1.5188236000000002,-2.0385473000000003
23017,10:53:14.800000,-0.7230178,-12.327214199999998,11.6712313,-3.2833330999999997,1.2512648000000002,-1.8846093000000002
23018,10:53:14.810000,-0.2537745,-13.2704887,10.8213263,-3.2833330999999997,1.2512648000000002,-1.8846093000000002
23019,10:53:14.819000,-1.1036795,-12.679146800000002,11.534768099999999,-2.6614728,1.2634821000000003,-1.3152834
23020,10:53:14.829000,-2.2743938,-10.754291499999999,12.607323599999999,-2.1006989,1.3306773,-0.6482193
23021,10:53:14.841000,-2.7963072999999996,-7.347488900000001,14.0581484,-0.42326440000000004,1.3037992,0.1654526
23022,10:53:14.850000,-2.6550555,-2.6550555,13.2704887,1.0049373,1.1718524,0.3816987
23023,10:53:14.860000,-2.0206193999999997,1.5872875,11.7717838,1.0049373,1.1718524,0.3816987
23024,10:53:14.868000,-1.1300146999999998,4.9294496,11.1277714,2.4184783,0.9262847,0.4757719
23025,10:53:14.878000,-0.3806617,7.2804546000000006,10.294625300000002,3.6866333,0.3276373,0.28762550000000003
23026,10:53:14.893000,0.0885817,8.357798599999999,10.435875900000001,3.1869462000000004,0.2897637,0.0005191
23027,10:53:14.897000,0.12449310000000001,8.7695837,10.483758,2.1448109,0.451032,-0.2633744
23028,10:53:14.908000,-0.3782676,8.3027344,10.256319,0.7911347,0.7185906999999999,-0.3867691
23029,10:53:14.917000,-0.8594815,7.232572599999999,10.143796,0.7911347,0.7185906999999999,-0.3867691
23030,10:53:14.928000,-1.1778966,5.774566200000001,9.3561382,-0.5381069,0.9091806,-0.378217
23031,10:53:14.941000,-1.2305667,4.3572593,8.3530102,-1.5741334999999999,0.9714888,-0.30980019999999997
23032,10:53:14.947000,-0.9360925999999999,3.1434517000000004,7.7161802999999995,-2.4049096000000003,0.8566461,-0.3843257
23033,10:53:14.959000,-0.48600200000000005,1.9918901000000002,7.3857946,-2.4293442,0.7503557,-0.5052769
23034,10:53:14.965000,-0.09097569999999999,1.0557975,7.4049473,-2.4293442,0.7503557,-0.5052769
23035,10:53:14.974000,0.0694289,0.3519325,7.888555499999999,-2.4073529,0.6489522,-0.5614765
23036,10:53:14.985000,0.1436459,-0.1891338,8.2500648,-2.3975792,0.5695397,-0.532155
23037,10:53:14.994000,0.09097569999999999,-0.8690578999999999,8.479898500000001,-2.3682578,0.5304444,-0.48206400000000005
23038,10:53:15.008000,-0.007182300000000001,-1.6160166,8.6857901,-2.2082112,0.5011229,-0.47473370000000004
23039,10:53:15.014000,-0.1723751,-2.0254076000000003,8.558902699999999,-2.2082112,0.5011229,-0.47473370000000004
23040,10:53:15.027000,-0.2489863,-2.300729,8.8821058,-2.0261734000000002,0.46935790000000005,-0.423421
23041,10:53:15.034000,-0.2777155,-2.4036752999999997,9.0568762,-1.7427322,0.3801717,-0.3305696
23042,10:53:15.044000,-0.1987102,-2.2384822,9.2627678,-0.8533132,0.13338239999999998,-0.1864055
23043,10:53:15.053000,0.1963161,-1.9200671999999999,9.8373518,-0.8533132,0.13338239999999998,-0.1864055
23044,10:53:15.064000,0.557825,-1.3861831,10.263501199999999,0.071536,-0.22947129999999996,-0.0153634
23045,10:53:15.076000,0.775688,-0.8379346,10.443059,0.4087334,-0.3223227,0.0750446
23046,10:53:15.093000,0.5769778,0.5410663,10.0049391,0.7825826,-0.3882961,0.22776079999999999
23047,10:53:15.101000,0.3184151,1.1060736,9.516543400000002,0.7825826,-0.3882961,0.22776079999999999
23048,10:53:15.111000,-0.07421710000000001,1.431671,9.593154,0.8400038000000001,-0.3956265,0.2570823
23049,10:53:15.124000,-0.5769778,1.5537702,9.447114,0.7874694999999999,-0.38707440000000004,0.2546388
23050,10:53:15.131000,-0.7206236999999999,1.3981537,8.7552195,0.3048864,-0.35775290000000004,0.1483484
23051,10:53:15.141000,-0.46445519999999996,1.1060736,8.1207829,-0.0237588,-0.4225045,0.09337050000000001
23052,10:53:15.150000,-0.3184151,0.9097575000000001,7.469587799999999,-0.21801379999999998,-0.4958083,0.18500020000000003
23053,10:53:15.159000,-0.2825037,0.509943,7.2445431,-0.2619961,-0.49336490000000005,0.3523772
23054,10:53:15.171000,-0.2753213,0.10773440000000001,6.8782454,-0.2619961,-0.49336490000000005,0.3523772
23055,10:53:15.179000,-0.17716329999999997,-0.34714429999999996,6.971615299999999,-0.19602270000000002,-0.4408305,0.4537807
23056,10:53:15.189000,0.18195150000000002,-0.6631654,7.4767703999999995,-0.034754400000000005,-0.4359436,0.4366765
23057,10:53:15.199000,0.7014709,-0.8570873999999999,7.708998200000001,0.2547955,-0.5104691,0.3523772
23058,10:53:15.208000,1.0174919,-0.6009188,7.8454614000000005,0.9682854,-0.5972118000000001,0.2986211
23059,10:53:15.222000,1.1348027,-0.15082820000000002,8.1997881,0.9682854,-0.5972118000000001,0.2986211
23060,10:53:15.228000,1.0869209,0.3184151,8.3817396,1.2150748,-0.5556731,0.35848579999999997
23061,10:53:15.241000,1.0055215,0.5745836999999999,8.1973944,1.3079261999999998,-0.48603450000000004,0.39880290000000007
23062,10:53:15.246000,0.7828703,0.7445647,7.953196000000001,1.2297354999999999,-0.40295690000000006,0.4049115
23063,10:53:15.257000,0.43333190000000005,0.8977870000000001,7.893343400000001,0.8974252,-0.21603229999999998,0.3792552
23064,10:53:15.265000,0.2058925,1.0031273,7.8023682,0.8974252,-0.21603229999999998,0.3792552
23065,10:53:15.275000,0.1101285,1.0893148000000001,7.6036577,0.771587,-0.15983270000000002,0.380477
23066,10:53:15.290000,0.09815800000000001,1.0869209,7.4145240999999995,0.6738486,-0.2099236,0.3377164
23067,10:53:15.295000,-0.07661119999999999,1.139591,7.0147095,0.6701834,-0.18548900000000001,0.3083949
23068,10:53:15.306000,-0.32559740000000004,1.2952073999999998,6.6508064,0.6701834,-0.18548900000000001,0.3083949
23069,10:53:15.315000,-0.5267016999999999,1.0893148000000001,7.0242853,0.6384185,-0.1378416,0.27663000000000004
23070,10:53:15.325000,-0.8259639999999999,0.9480630999999999,7.1200494999999995,0.41972890000000007,-0.0975245,0.2033262
23071,10:53:15.335000,-1.0749503,0.4476965,7.1368084000000005,0.41972890000000007,-0.0975245,0.2033262
23072,10:53:15.344000,-1.2760546,-0.0933698,7.0434384,0.1069662,-0.0596509,0.1031444
23073,10:53:15.356000,-1.4244888,-0.4381201,6.909369,0.0507666,-0.043768400000000006,0.06038380000000001
23074,10:53:15.362000,-1.5082823,-0.7397765000000001,6.8519106,0.0507666,-0.043768400000000006,0.06038380000000001
23075,10:53:15.374000,-1.575317,-1.0342506999999999,7.0218916,0.076423,-0.0474336,0.038392699999999995
23076,10:53:15.382000,-1.6543223000000002,-1.0964973,7.3450952,0.1460615,-0.043768400000000006,0.024953700000000002
23077,10:53:15.391000,-1.7524803,-1.1731083,7.826309200000001,0.1741613,-0.052320500000000006,0.018844999999999997
23078,10:53:15.406000,-1.9847078000000002,-1.3861831,7.9196786999999995,0.17171789999999998,-0.1146287,-0.06789780000000001
23079,10:53:15.411000,-2.2097533,-1.7189629000000002,7.9627724,0.17171789999999998,-0.1146287,-0.06789780000000001
23080,10:53:15.422000,-2.4659216,-1.6686869,8.218940700000001,0.3048864,-0.08408550000000001,-0.1314277
23081,10:53:15.430000,-2.6335083999999997,-1.4939176,8.429621699999998,0.3048864,-0.08408550000000001,-0.1314277
23082,10:53:15.440000,-2.5736562999999997,-1.5322232,9.2891026,0.4710416,-0.113407,-0.1656361
23083,10:53:15.450000,-2.4252219,-1.5609524,9.952267599999999,0.4710416,-0.113407,-0.1656361
23084,10:53:15.460000,-2.2480588,-1.6064403,10.086338,0.1912655,-0.1549458,-0.125319
23085,10:53:15.471000,-2.2313001,-1.7572685000000001,10.2132254,0.1912655,-0.1549458,-0.125319
23086,10:53:15.480000,-2.4515569,-2.0349839,10.3449011,-0.3133087,-0.0938593,-0.1265408
23087,10:53:15.489000,-2.6885729,-2.3797342999999995,10.3329296,-0.4367034000000001,-0.0449902,-0.1680796
23088,10:53:15.499000,-2.8394009999999996,-2.7939133999999997,10.301807400000001,-0.4367034000000001,-0.0449902,-0.1680796
23089,10:53:15.509000,-2.8154602000000004,-2.8968594,10.445452699999999,-0.3963864,-0.052320500000000006,-0.1766317
23090,10:53:15.522000,-2.7364547000000004,-2.8872831000000003,10.5771284,-0.2778786,-0.08164199999999999,-0.17174479999999998
23091,10:53:15.528000,-2.4060693,-2.9040418,10.5675516,-0.2778786,-0.08164199999999999,-0.17174479999999998
23092,10:53:15.538000,-2.1762357000000003,-2.7939133999999997,10.6824694,-0.1092799,-0.1011897,-0.188849
23093,10:53:15.545000,-2.0804718,-2.4276164000000002,10.818931599999999,0.0776447,-0.10607660000000001,-0.2181705
23094,10:53:15.556000,-2.2767880000000003,-2.0541368,10.694438900000002,0.2828952,-0.036438099999999994,-0.2426051
23095,10:53:15.565000,-2.4898627,-1.6519281000000003,10.7111979,0.2828952,-0.036438099999999994,-0.2426051
23096,10:53:15.575000,-2.6885729,-1.4675825,10.586705199999999,0.3219906,0.0124311,-0.2645962
23097,10:53:15.586000,-2.8394009999999996,-1.3981537,10.3975706,0.3232123,0.05396990000000001,-0.2914743
23098,10:53:15.595000,-2.9231944,-1.5130703,10.3353243,0.29266909999999996,0.08695660000000001,-0.306135
23099,10:53:15.606000,-2.9184062,-1.7141746999999998,10.2228022,0.0800882,0.0967304,-0.27681350000000005
23100,10:53:15.615000,-2.9686825,-2.0661073,9.8086233,0.0800882,0.0967304,-0.27681350000000005
23101,10:53:15.633000,-2.9447415,-3.1602101,9.3154383,-0.08606710000000001,0.080848,-0.2438268
23102,10:53:15.644000,-3.0524758999999997,-3.4882019,8.702549000000001,-0.27910029999999997,0.060078599999999996,-0.22916599999999998
23103,10:53:15.653000,-3.1817572,-3.8185875,8.3673754,-0.2815438,0.052748199999999995,-0.2193922
23104,10:53:15.663000,-3.3732852999999996,-3.8497107,8.1136007,-0.16425770000000003,0.025870099999999997,-0.2120618
23105,10:53:15.674000,-3.5217192,-3.6342421000000003,8.0561428,0.22669570000000003,-0.0352163,-0.1473102
23106,10:53:15.687000,-3.3876498,-3.3493443,8.1447239,0.3684163,-0.10974180000000001,-0.1143235
23107,10:53:15.692000,-3.0428995999999997,-3.1793633,8.3817396,0.3684163,-0.10974180000000001,-0.1143235
23108,10:53:15.703000,-2.8441892,-2.7077258,8.0298071,0.43561140000000004,-0.18426729999999997,-0.08011510000000001
23109,10:53:15.712000,-3.0189586,-2.0900483,7.232572599999999,0.4343897,-0.1732717,-0.0226938
23110,10:53:15.722000,-2.9998057,-1.4723707000000001,6.277327099999999,0.4771502,-0.0120035,0.0200668
23111,10:53:15.731000,-3.0045941000000003,-0.9049693000000001,5.2765937,0.5443454000000001,0.008765899999999998,-0.0349111
23112,10:53:15.740000,-2.9375593999999996,-0.0670348,4.3285303,0.6176491,0.0197615,-0.09477580000000001
23113,10:53:15.752000,-2.7747604999999997,0.6392244,3.2248509,0.6286447,-0.0022296,-0.1607492
23114,10:53:15.759000,-2.7220902000000002,0.8499051,2.5473211,0.5394584,-0.058429199999999994,-0.2682614
23115,10:53:15.769000,-2.7532134,0.557825,2.8250365,0.2670128,-0.16471960000000002,-0.391656
23116,10:53:15.780000,-2.8106720000000003,-0.23222759999999998,3.3062503,0.2670128,-0.16471960000000002,-0.391656
23117,10:53:15.790000,-2.6095676,-0.9887628,3.7946465,-0.8643086999999999,-0.45060429999999996,-0.5272680999999999
23118,10:53:15.802000,-1.7955738999999997,-1.9392200000000002,4.804956,-1.4079783000000001,-0.6106509,-0.5675851
23119,10:53:15.809000,-0.6033128000000001,-2.7460313,6.2078981,-1.6254462,-0.7413759,-0.5712503000000001
23120,10:53:15.822000,0.5075489000000001,-2.8034897,7.4169178,-1.5606946000000002,-0.8110145000000001,-0.4796206
23121,10:53:15.827000,1.3526658,-2.6023853,8.2452765,-1.5606946000000002,-0.8110145000000001,-0.4796206
23122,10:53:15.837000,1.4699767,-2.1187775,8.300340700000001,-1.2234972,-0.8000189999999999,-0.37943879999999996
23123,10:53:15.852000,1.1252263999999998,-1.1443793,8.1949997,-0.6896014,-0.7083891999999999,-0.34889549999999997
23124,10:53:15.856000,0.7134414000000001,0.0790053,7.946013499999999,-0.15326220000000002,-0.5776642,-0.3635563
23125,10:53:15.868000,0.7014709,1.2066257,7.4456468,0.2828952,-0.47748240000000003,-0.4112037
23126,10:53:15.876000,0.8929988000000001,2.2217238,6.595742200000001,0.510137,-0.4237263,-0.46740329999999997
23127,10:53:15.885000,1.2688723999999998,2.789125,5.9230003,0.1118531,-0.3198793,-0.4857292
23128,10:53:15.895000,1.5944698,2.6861787,5.9493356,0.1118531,-0.3198793,-0.4857292
23129,10:53:15.905000,1.8123327,1.6830512999999998,6.868669500000001,-0.4281513,-0.275897,-0.4845075
23130,10:53:15.918000,1.6638986,0.4476965,8.1207829,-1.5985681,-0.1879325,-0.42952970000000007
23131,10:53:15.925000,1.4580061000000002,-0.8068113,9.8181992,-1.5985681,-0.1879325,-0.42952970000000007
23132,10:53:15.935000,1.2664783000000002,-2.2504527999999997,11.4509745,-1.9223263,-0.294223,-0.32568270000000005
23133,10:53:15.945000,1.237749,-3.4618669,13.253730800000001,-1.9223263,-0.294223,-0.32568270000000005
23134,10:53:15.954000,0.7900524999999999,-3.9335042999999996,13.672698,-1.648659,-0.3308749,-0.2853656
23135,10:53:15.967000,0.1053403,-4.010115600000001,14.070117999999999,-0.4354817,-0.27834050000000005,-0.021472
23136,10:53:15.973000,-0.6464066999999999,-3.2033041,13.890561100000001,-0.4354817,-0.27834050000000005,-0.021472
23137,10:53:15.984000,-0.6895005,-2.1618712,13.1268435,1.485077,-0.4310567,0.23264770000000004
23138,10:53:15.993000,-0.20110429999999999,-0.9289103000000001,12.1380806,1.485077,-0.4310567,0.23264770000000004
23139,10:53:16.003000,0.4381201,0.533884,11.5730734,3.3702053999999997,-0.7743626,0.44767209999999996
23140,10:53:16.017000,1.1659261,1.5824993,10.9434252,4.0030613,-0.9002008,0.5160889
23141,10:53:16.022000,1.8338796000000002,2.1020187999999997,10.2802601,4.0030613,-0.9002008,0.5160889
23142,10:53:16.035000,2.3103054,2.4324043,10.1007032,4.4563231,-1.0162652,0.6052751999999999
23143,10:53:16.041000,2.279182,2.3725517000000003,9.6913118,4.4563231,-1.0162652,0.6052751999999999
23144,10:53:16.052000,1.9009144,2.1475065,8.846195199999999,4.0727,-0.9111964,0.822743
23145,10:53:16.061000,1.4627944,1.3742126000000001,8.6259384,4.0727,-0.9111964,0.822743
23146,10:53:16.070000,0.6990768,0.6392244,8.453562699999999,3.5986687999999996,-0.9075310999999999,0.9522464
23147,10:53:16.083000,-0.21068070000000003,0.9983392,8.0034723,3.5009305,-0.8989790999999999,1.0328805
23148,10:53:16.090000,-0.2992623,2.3150935,8.9970226,3.5009305,-0.8989790999999999,1.0328805
23149,10:53:16.102000,0.9791864,3.2535803,10.1964674,4.2486291,-1.264276,0.8251864
23150,10:53:16.109000,2.8058836,5.0539427,10.4861526,4.2486291,-1.264276,0.8251864
23151,10:53:16.120000,4.759468599999999,8.518202800000001,10.8261147,5.7684608,-1.9765443999999999,0.9045989
23152,10:53:16.132000,6.966827400000001,11.5994081,10.2778664,5.7684608,-1.9765443999999999,0.9045989
23153,10:53:16.139000,9.147851,14.038994800000001,7.926860799999999,6.500276599999999,-2.2025645000000003,0.8325168
23154,10:53:16.158000,11.3623934,14.3167114,2.5904147999999996,6.8924518,-2.3198504,0.5710666999999999
23155,10:53:16.168000,10.021697,13.4620171,0.3112328,5.2064652,-2.1500299,1.0450978000000002
23156,10:53:16.177000,8.5229921,12.2960911,-0.9528513000000001,5.2064652,-2.1500299,1.0450978000000002
23157,10:53:16.187000,8.961112,12.3415794,-1.3454834999999998,4.172882100000001,-2.1243737,1.4177253
23158,10:53:16.199000,9.2053099,11.8100891,-2.1499007000000003,3.1429639,-2.3381765,1.3065479
23159,10:53:16.206000,6.9859800000000005,9.787075999999999,-2.9710765,3.1429639,-2.3381765,1.3065479
23160,10:53:16.216000,3.9933567,7.512682000000001,-3.6845181000000005,2.8961744,-2.3674979,1.5460068999999999
23161,10:53:16.226000,2.8394009999999996,6.339573400000001,-3.1099343,2.7544539,-2.5776353,1.6474103999999998
23162,10:53:16.235000,4.043633,5.9828529,-1.5777111000000001,3.3030105000000005,-3.5256974999999997,0.12391379999999999
23163,10:53:16.251000,5.764989900000001,6.121710299999999,-0.30883879999999997,3.5265867999999996,-3.7150654999999997,-0.3818822
23164,10:53:16.255000,6.930915799999999,6.1839571,0.9289103000000001,3.5265867999999996,-3.7150654999999997,-0.3818822
23165,10:53:16.265000,7.3810066999999995,5.6644373,0.8283582,2.9548175,-3.5061497999999998,0.15934389999999998
23166,10:53:16.274000,7.1583557,4.8265028,-0.3854499,2.9548175,-3.5061497999999998,0.15934389999999998
23167,10:53:16.284000,6.4856133,5.365175700000001,-2.5257742000000003,2.4930038,-3.1652873,0.44645039999999997
23168,10:53:16.297000,6.0905871,9.5811834,-4.060391399999999,2.3708308,-2.7670035,0.6431488000000001
23169,10:53:16.303000,5.764989900000001,13.3207645,-4.6804628,3.3030105000000005,-2.250212,1.1562752
23170,10:53:16.314000,5.4657273,11.561102900000002,-5.8032956,2.9975781,-2.1317041000000003,1.6657363
23171,10:53:16.323000,6.545465900000001,8.005866099999999,-7.3307304,2.9975781,-2.1317041000000003,1.6657363
23172,10:53:16.333000,8.3697691,7.0673794999999995,-7.5198641,1.9041302,-2.2819769,1.8416654
23173,10:53:16.343000,8.6857901,8.4344101,-6.703476400000001,3.1808374,-2.1182649,1.4763683
23174,10:53:16.351000,8.4559574,9.1334867,-5.9972177,3.1808374,-2.1182649,1.4763683
23175,10:53:16.365000,8.2835817,9.0137815,-6.3826675,4.9841104000000005,-2.0742828999999996,1.3945124
23176,10:53:16.371000,8.156694400000001,8.506233199999999,-7.3259419999999995,5.0867357,-1.8946886000000003,1.3089913
23177,10:53:16.381000,7.960378599999999,8.9850531,-8.4391975,5.0867357,-1.8946886000000003,1.3089913
23178,10:53:16.390000,8.0250187,10.320960000000001,-9.341773,4.901032900000001,-1.630795,1.1831533
23179,10:53:16.400000,8.2285175,11.422245,-10.5172758,3.0317863999999997,-1.0443649,0.8105257
23180,10:53:16.414000,8.2740059,12.1955395,-11.508433300000002,3.0317863999999997,-1.0443649,0.8105257
23181,10:53:16.420000,7.4504356,12.485224699999998,-13.016715,-0.1483752,-0.2844491,-0.1815186
23182,10:53:16.434000,8.676214199999999,10.902726199999998,-14.6782188,-1.7085238,0.0319788,-0.8974521000000001
23183,10:53:16.439000,11.498855599999999,8.953928900000001,-16.433094,-1.7085238,0.0319788,-0.8974521000000001
23184,10:53:16.449000,14.149124100000002,7.7903975999999995,-16.780237200000002,-3.7109385,0.6037481,-0.4527425
23185,10:53:16.458000,14.6183672,7.5916872,-16.368452100000003,-3.7109385,0.6037481,-0.4527425
23186,10:53:16.468000,13.9456253,7.3187599,-15.453907000000001,-3.7561424,2.1993267999999997,0.4317896
23187,10:53:16.480000,12.904192,6.9740095,-13.8235264,-3.9100802000000003,3.1070716,-0.28780900000000004
23188,10:53:16.487000,11.7861481,7.199055199999999,-11.6257439,-3.9100802000000003,3.1070716,-0.28780900000000004
23189,10:53:16.496000,10.9625778,7.7592740000000004,-9.104758300000002,-4.120217299999999,3.7668056000000005,-0.9646471999999999
23190,10:53:16.507000,10.6321926,7.8694024,-7.0506210000000005,-4.4183192,4.1711984,-1.190667
23191,10:53:16.516000,10.7351389,7.424099900000001,-5.9158182,-5.401811599999999,4.4057703,-1.3922523999999998
23192,10:53:16.530000,10.8931494,6.528707499999999,-4.5942755,-5.8685122000000005,4.4192095,-1.5351948
23193,10:53:16.535000,10.651345300000001,5.688378299999999,-2.640691,-5.8685122000000005,4.4192095,-1.5351948
23194,10:53:16.546000,10.055214900000001,4.5966697,-0.33517379999999997,-6.1751666,4.5340519,-1.5669597
23195,10:53:16.555000,8.7719784,3.4977782,0.6871063000000001,-6.2997828,4.8712492,-1.5180906
23196,10:53:16.567000,6.9213395,2.3366406000000004,0.6081011,-6.0175633,5.761889900000001,-1.3360528999999999
23197,10:53:16.575000,4.5918813,2.1738417,0.3758735,-6.0175633,5.761889900000001,-1.3360528999999999
23198,10:53:16.583000,2.106807,2.4180398,0.5386721999999999,-5.5545278,5.906054,-1.1870018999999998
23199,10:53:16.595000,-0.7110473,2.6478732000000003,0.8499051,-4.0566873999999995,5.6568213,-1.1979975
23200,10:53:16.603000,-4.1968551,3.2607625,1.8937321,-4.0566873999999995,5.6568213,-1.1979975
23201,10:53:16.612000,-7.819126600000001,3.0835993,3.3924379,-2.7078984,4.9347792,-1.7208976999999999
23202,10:53:16.623000,-10.2706842,3.4451079,5.7913251,-2.7078984,4.9347792,-1.7208976999999999
23203,10:53:16.632000,-9.7918644,2.8322186,9.12391,-2.6455903,2.9971161,-1.9469177
23204,10:53:16.644000,-6.856699000000001,1.7357216,11.8148766,-3.139169,1.7668345,-1.9896781000000003
23205,10:53:16.652000,-3.6126949999999995,0.14604,12.4708595,-3.9308498,1.0631184999999999,-2.036104
23206,10:53:16.670000,0.5290958,-3.9622335,13.117266699999998,-3.9308498,1.0631184999999999,-2.036104
23207,10:53:16.679000,0.9624277,-5.456151,13.708608600000002,-4.3376851,0.20302089999999998,-1.3629308999999998
23208,10:53:16.692000,0.5195194000000001,-6.7441759,14.1682758,-3.8612111000000002,0.17980810000000003,-0.9438778
23209,10:53:16.699000,-0.0861876,-6.593348,14.560909299999999,-3.8612111000000002,0.17980810000000003,-0.9438778
23210,10:53:16.710000,-0.3064446,-4.7187686,14.709342999999999,-2.0151779999999997,-0.0706465,-0.5614765
23211,10:53:16.719000,0.17716329999999997,-1.4029418,14.673431400000002,-2.0151779999999997,-0.0706465,-0.5614765
23212,10:53:16.729000,0.9193339,2.159477,13.8354969,-0.6761623999999999,-0.3296531,-0.5040551
23213,10:53:16.739000,1.4292768999999999,4.651733900000001,13.0693846,0.40506820000000004,-0.5691121,-0.4808423
23214,10:53:16.748000,1.8099386999999998,6.574194900000001,12.351155300000002,1.0672455,-0.6949502,-0.47717709999999997
23215,10:53:16.761000,1.9799197,7.819126600000001,11.8962774,1.1491014,-0.8097928000000001,-0.2450485
23216,10:53:16.769000,2.106807,8.5229921,11.704749099999999,0.8742122999999999,-0.7792495,-0.1326494
23217,10:53:16.779000,2.4300102999999997,8.8007069,11.5946198,0.5663365,-0.7083891999999999,-0.1240973
23218,10:53:16.788000,2.8968594,8.637908,11.333663,0.5663365,-0.7083891999999999,-0.1240973
23219,10:53:16.797000,3.0812049,8.108812299999999,11.0439777,-0.0078764,-0.39929169999999997,-0.2658179
23220,10:53:16.810000,2.9399533,7.2014489,10.8524504,-0.253444,-0.1427285,-0.29758290000000004
23221,10:53:16.817000,2.3869164,6.1863508000000005,10.6321926,-0.253444,-0.1427285,-0.29758290000000004
23222,10:53:16.829000,1.6878396,5.168858999999999,10.201254800000001,-0.4721335,0.1468213,-0.27559179999999994
23223,10:53:16.836000,0.8929988000000001,4.201643499999999,9.851716,-0.6321800999999999,0.38750209999999996,-0.2438268
23224,10:53:16.846000,0.24419810000000003,3.5456602999999998,9.4375372,-0.6529496,0.5634311,-0.2511572
23225,10:53:16.860000,0.0,3.2368214,8.8868952,-0.2644396,0.685604,-0.31346540000000006
23226,10:53:16.864000,0.18195150000000002,3.272733,8.3745575,-0.0152067,0.5939744,-0.3452303
23227,10:53:16.877000,0.7086533,3.5935422999999993,7.7449093,0.19004379999999998,0.4620275,-0.3391217
23228,10:53:16.883000,1.0964973,4.1920671,7.2660894,0.19004379999999998,0.4620275,-0.3391217
23229,10:53:16.893000,1.3502717,4.7881975,7.1176553,0.3354296,0.3777282,-0.16197089999999997
23230,10:53:16.904000,1.4915235,5.2694116,6.966827400000001,0.3354296,0.3777282,-0.16197089999999997
23231,10:53:16.913000,1.6375635,5.384327900000001,6.7609348,0.0507666,0.5133402,-0.0507935
23232,10:53:16.926000,1.6591103999999999,5.1856179000000004,6.5311017,-0.20946170000000003,0.5939744,0.0041843
23233,10:53:16.933000,1.8123327,4.8600205999999995,6.1743803,-0.20946170000000003,0.5939744,0.0041843
23234,10:53:16.944000,1.9535846999999997,4.3213482,5.8392072,-0.812996,0.6232958000000001,0.1715612
23235,10:53:16.952000,2.1092009999999997,3.9023809000000003,5.4824858,-0.812996,0.6232958000000001,0.1715612
23236,10:53:16.961000,2.3366406000000004,3.4451079,5.4178457,-1.1880671,0.4424799,0.2485302
23237,10:53:16.974000,2.5018332,3.0524758999999997,5.4824858,-1.1880671,0.4424799,0.2485302
23238,10:53:16.980000,2.4850745,2.8274305,5.3196874,-1.0377944,0.3386329,0.2436433
23239,10:53:16.990000,2.4563452999999997,2.7699722999999996,5.197588400000001,-0.8093309,0.32397209999999993,0.21432179999999998
23240,10:53:17,2.3940987999999996,3.0381112,5.1497064,-0.8093309,0.32397209999999993,0.21432179999999998
23241,10:53:17.010000,2.4946511,3.3158267,5.3220816,-0.5503241999999999,0.29342890000000005,0.1617874
23242,10:53:17.020000,2.6359026,3.6007245,5.4465747,-0.32674770000000003,0.243338,0.07870980000000001
23243,10:53:17.030000,2.66942,3.8473167,5.4441805,-0.194801,0.19691229999999998,-0.009254700000000001
23244,10:53:17.042000,2.4778922000000003,3.9191399,5.3053231,-0.2632178,0.25433360000000005,-0.0886672
23245,10:53:17.049000,2.1163833,4.0579977,5.082671599999999,-0.2632178,0.25433360000000005,-0.0886672
23246,10:53:17.062000,1.8219091,4.0029330000000005,5.1664648,-0.5539894000000001,0.32275040000000005,-0.1399798
23247,10:53:17.068000,1.6615044999999997,3.9311101,5.310111,-0.7103708000000001,0.29709409999999997,-0.18762720000000002
23248,10:53:17.078000,1.5561641000000002,3.8137991,5.5255799,-0.8704174000000001,0.23967280000000002,-0.22305740000000002
23249,10:53:17.091000,1.649534,3.6246655,6.035522900000001,-1.0219119,0.17858629999999998,-0.234053
23250,10:53:17.096000,1.9128848000000003,3.1745751,6.9069747999999995,-1.0219119,0.17858629999999998,-0.234053
23251,10:53:17.110000,2.0685015,2.7939133999999997,7.419312,-1.2247188999999998,0.1492648,-0.2181705
23252,10:53:17.117000,2.2408764,2.3964927000000005,7.7185745,-1.2247188999999998,0.1492648,-0.2181705
23253,10:53:17.126000,2.2289058999999996,2.0732894,8.1734533,-1.2845837,0.17858629999999998,-0.1925142
23254,10:53:17.139000,2.0421662,1.8721851999999999,8.3290691,-1.1868453,0.3447415,-0.2426051
23255,10:53:17.146000,1.7572685000000001,1.6950218999999997,8.2356997,-1.0805548,0.4559189,-0.2988046
23256,10:53:17.159000,1.3766067,1.6591103999999999,8.2835817,-0.9877034,0.5108967000000001,-0.3232392
23257,10:53:17.164000,1.139591,1.6638986,8.587632199999998,-0.9877034,0.5108967000000001,-0.3232392
23258,10:53:17.175000,0.9528513000000001,1.5394055,8.8366184,-0.9266169,0.5182270999999999,-0.31224359999999995
23259,10:53:17.193000,0.7948408,1.2329608,9.6673708,-0.8936303,0.5267791999999999,-0.2865873
23260,10:53:17.209000,0.7038651,0.9600335999999999,9.923539199999999,-0.9070691999999999,0.5206706,-0.1363146
23261,10:53:17.213000,0.4141791,0.8187817,10.1174612,-0.9070691999999999,0.5206706,-0.1363146
23262,10:53:17.225000,0.0167587,0.8068113,10.579522099999998,-0.8117744,0.5670963000000001,-0.053237
23263,10:53:17.233000,-0.5530368,1.1515615,10.9362431,-0.5662067,0.6049699000000001,0.028618900000000003
23264,10:53:17.243000,-1.3383013000000001,1.7381157999999999,11.0655241,0.2340261,0.8932981,0.1483484
23265,10:53:17.251000,-2.0852599,2.4563452999999997,10.9386368,0.2340261,0.8932981,0.1483484
23266,10:53:17.261000,-2.7388489,3.0835993,10.857237800000002,0.5968796999999999,1.0851095,0.1532353
23267,10:53:17.274000,-3.1745751,3.4211669000000002,10.5148821,0.771587,1.214613,0.0628273
23268,10:53:17.282000,-3.270339,3.4618669,9.8804464,0.771587,1.214613,0.0628273
23269,10:53:17.292000,-3.2847035000000004,3.2751269,9.236433,0.3024429,0.8945197,0.059162099999999995
23270,10:53:17.301000,-3.1721807,2.4563452999999997,8.841406800000001,0.3024429,0.8945197,0.059162099999999995
23271,10:53:17.311000,-3.0812049,1.5896816,8.5158091,-0.3585127,0.5451052,-0.066676
23272,10:53:17.323000,-3.0117762000000003,0.7445647,8.187817599999999,-0.5747589,0.437593,-0.1363146
23273,10:53:17.330000,-3.1171165000000003,0.0813994,8.2763996,-0.5747589,0.437593,-0.1363146
23274,10:53:17.340000,-3.2272451,-0.6176775,8.1590881,-0.781231,0.4119366,-0.21328360000000002
23275,10:53:17.349000,-3.2392156,-1.4771589,8.4703207,-0.781231,0.4119366,-0.21328360000000002
23276,10:53:17.359000,-3.4834137000000003,-2.1738417,8.2955523,-0.8325437,0.41071490000000005,-0.2438268
23277,10:53:17.371000,-3.5241132000000004,-2.8537657000000003,8.467927,-0.8777478000000001,0.4278191,-0.20717489999999997
23278,10:53:17.379000,-3.5360837,-3.4044084999999997,8.3745575,-0.8557565999999999,0.3862804,-0.09111060000000001
23279,10:53:17.393000,-3.4283495000000004,-3.7395822999999995,8.1351471,-0.7519096,0.26899429999999996,-0.055680499999999994
23280,10:53:17.398000,-3.3948319,-3.8521049,8.0609303,-0.7519096,0.26899429999999996,-0.055680499999999994
23281,10:53:17.407000,-3.4331373999999997,-3.5217192,8.348222699999999,-0.5625415,0.1761429,-0.027580700000000003
23282,10:53:17.422000,-3.4331373999999997,-3.0452936,8.568478599999999,-0.0433065,0.0112094,0.0445014
23283,10:53:17.426000,-3.4115907999999995,-2.5904147999999996,8.6666374,0.148505,-0.0938593,0.0493883
23284,10:53:17.441000,-3.416379,-2.039772,8.9443531,0.2731214,-0.1818239,0.0689359
23285,10:53:17.446000,-3.5408720999999996,-1.5633465,9.303467800000002,0.2731214,-0.1818239,0.0689359
23286,10:53:17.455000,-3.5552367999999994,-1.1802906000000002,9.631459199999998,0.3452035,-0.23313649999999997,0.0738229
23287,10:53:17.465000,-3.5265076,-0.8546931999999999,10.0336676,0.3598642,-0.2661232,0.0652708
23288,10:53:17.475000,-3.3708911,-0.8427228000000001,10.038456,0.3024429,-0.30277509999999996,0.054275199999999996
23289,10:53:17.487000,-3.3062503,-1.2736604999999999,10.0073328,0.03854930000000001,-0.3247662,0.0066277
23290,10:53:17.495000,-3.3014622000000005,-1.5346173,9.7990456,0.03854930000000001,-0.3247662,0.0066277
23291,10:53:17.505000,-3.2583685,-1.9344318,9.8253813,-0.10561469999999999,-0.31865759999999993,-0.0116982
23292,10:53:17.513000,-3.2535803,-2.1211715,9.7056761,-0.10561469999999999,-0.31865759999999993,-0.0116982
23293,10:53:17.523000,-3.102752,-2.3198817000000003,10.1102791,-0.0811801,-0.3137707,-0.03613280000000001
23294,10:53:17.537000,-3.1817572,-2.1115949,9.9307222,-0.000546,-0.3235445,-0.0373545
23295,10:53:17.542000,-3.0428995999999997,-2.0278015,10.031273800000001,0.0703143,-0.3479791,-0.009254700000000001
23296,10:53:17.553000,-2.8034897,-1.9080968,9.9259329,0.1338443,-0.3357618,-0.09966269999999999
23297,10:53:17.561000,-2.7173021,-1.9823137999999998,9.7368002,0.11796179999999999,-0.2771187,-0.11921040000000001
23298,10:53:17.571000,-2.7244842,-2.039772,9.827775,0.11796179999999999,-0.2771187,-0.11921040000000001
23299,10:53:17.583000,-3.0261407000000005,-2.1690536,9.3872614,0.08130989999999999,-0.23680170000000003,-0.10821480000000001
23300,10:53:17.591000,-3.0788109,-2.5042272,9.293891,0.0226669,-0.1561675,-0.09966269999999999
23301,10:53:17.604000,-2.9854412,-2.8106720000000003,9.2172804,0.0287755,-0.16471960000000002,-0.1851838
23302,10:53:17.610000,-2.9926236,-3.0357172,8.5756617,0.0287755,-0.16471960000000002,-0.1851838
23303,10:53:17.620000,-2.7125139,-2.9423472999999998,8.3338575,0.06664910000000002,-0.17815870000000003,-0.1986228
23304,10:53:17.630000,-2.47071,-2.5999912999999997,7.7425156,0.1778265,-0.2196975,-0.22672260000000002
23305,10:53:17.639000,-2.4635274,-2.183418,6.8040285,0.29511259999999995,-0.1818239,-0.28780900000000004
23306,10:53:17.653000,-2.7460313,-1.721357,6.0020055999999995,0.3378731,0.12238679999999999,-0.3623345
23307,10:53:17.659000,-3.2320333,-1.1443793,5.2909579,0.23646950000000003,0.22989899999999996,-0.3403434
23308,10:53:17.669000,-3.5791779000000004,-0.82357,4.948602200000001,0.23646950000000003,0.22989899999999996,-0.3403434
23309,10:53:17.679000,-3.8688636,-0.6488007,4.771439099999999,0.076423,0.2421163,-0.3391217
23310,10:53:17.690000,-3.7778878,-0.5841601,5.0515485,-0.23878320000000003,-0.0266642,-0.378217
23311,10:53:17.699000,-3.3852558,-0.48600200000000005,5.245470500000001,-0.23878320000000003,-0.0266642,-0.378217
23312,10:53:17.707000,-2.8753126,-0.3495384,5.7338667,-0.3939429,-0.41883940000000003,-0.5297115
23313,10:53:17.722000,-2.2911525,-0.15082820000000002,5.9565177,-0.36706479999999997,-0.4982518,-0.6579931
23314,10:53:17.736000,-1.1539556,0.4548787,5.0036664,-0.2326746,-0.4677085999999999,-0.9353256999999999
23315,10:53:17.748000,-0.7445647,0.9336985000000001,4.419506500000001,-0.293761,-0.4408305,-0.9939687
23316,10:53:17.756000,-0.22025709999999998,1.4675825,4.7283449,-0.5527678,-0.44816090000000003,-0.9756427
23317,10:53:17.769000,0.26813909999999996,1.7812095000000001,4.843262200000001,-1.0145814,-0.4359436,-0.9243300999999999
23318,10:53:17.774000,0.6248598000000001,1.3191483999999998,4.7738328,-1.0145814,-0.4359436,-0.9243300999999999
23319,10:53:17.784000,0.8618754999999999,0.5554309000000001,4.7379217,-2.3169451000000003,-0.3736354,-0.8449177
23320,10:53:17.793000,0.7948408,-0.4261496,5.286169999999999,-2.3169451000000003,-0.3736354,-0.8449177
23321,10:53:17.805000,0.1484341,-1.5824993,5.764989900000001,-2.9351401000000004,-0.32720970000000005,-0.7642835
23322,10:53:17.815000,-0.6128892,-2.863342,6.2940855,-3.2845546999999997,-0.1915977,-0.7019753000000001
23323,10:53:17.824000,-1.3526658,-3.9502629999999996,7.002739,-3.3554150999999997,-0.052320500000000006,-0.6641017
23324,10:53:17.835000,-1.6758691000000003,-4.9390254,8.0609303,-3.2173595,-0.0559857,-0.6005718000000001
23325,10:53:17.844000,-1.5872875,-5.178435299999999,9.1670036,-2.8838274,-0.21603229999999998,-0.5077204000000001
23326,10:53:17.853000,-0.8738461,-5.314899,10.7279558,-2.3743662999999997,-0.4408305,-0.3989864
23327,10:53:17.866000,-0.0119705,-5.0754895,11.6113787,-1.7647233,-0.6546331999999999,-0.2853656
23328,10:53:17.872000,0.5410663,-4.5104818,12.2529974,-1.039016,-0.7829148,-0.1778534
23329,10:53:17.884000,0.4620611,-4.1274261,12.734211,0.3024429,-0.7071675000000001,0.0493883
23330,10:53:17.892000,-0.0526702,-3.6725476,12.5450773,0.3024429,-0.7071675000000001,0.0493883
23331,10:53:17.902000,-0.5745836999999999,-3.3637087,11.7550249,1.2786046999999998,-0.49947349999999996,0.3279426
23332,10:53:17.912000,-1.1683203000000002,-3.0045941000000003,10.361659,1.2786046999999998,-0.49947349999999996,0.3279426
23333,10:53:17.922000,-1.7117807,-2.6909671000000004,9.5500603,1.9725471,-0.6521897,0.6798006
23334,10:53:17.934000,-2.4946511,-2.3486105999999998,9.12391,2.3744959999999997,-0.8110145000000001,0.8862728999999999
23335,10:53:17.940000,-3.1099343,-1.8913380000000002,9.131093,2.3744959999999997,-0.8110145000000001,0.8862728999999999
23336,10:53:17.952000,-2.9543178,-1.5561641000000002,9.461478199999998,3.1625116,-1.4267662,1.035324
23337,10:53:17.959000,-2.2289058999999996,-1.3957596,9.5500603,3.1625116,-1.4267662,1.035324
23338,10:53:17.969000,-1.3981537,-1.4987059,9.4902067,3.6768596,-2.2636509,0.8410689
23339,10:53:17.982000,-0.5865541999999999,-1.575317,9.9067812,3.6768596,-2.2636509,0.8410689
23340,10:53:17.989000,-0.3112328,-1.3071779,10.167736999999999,3.9309792999999997,-2.6057351000000004,0.8777208000000001
23341,10:53:18,-0.3974204,-0.82357,10.0528212,4.714108,-2.8256464,1.1049626000000001
23342,10:53:18.008000,-0.43333190000000005,-0.004788199999999999,10.0193033,4.714108,-2.8256464,1.1049626000000001
23343,10:53:18.020000,0.241804,1.2425373,10.6393747,5.288321,-3.1237482999999995,1.2124747
23344,10:53:18.028000,1.8075444999999999,3.2320333,11.419851300000001,5.288321,-3.1237482999999995,1.2124747
23345,10:53:18.037000,4.2854371,5.772172,12.607323599999999,5.4862413,-3.6271009,1.2039226
23346,10:53:18.050000,7.167931599999999,8.3530102,12.9568624,5.9211769,-4.4957504,0.8141909
23347,10:53:18.057000,9.6769466,10.3975706,12.109351199999999,5.9211769,-4.4957504,0.8141909
23348,10:53:18.067000,11.027218800000002,11.9106407,9.811017,5.9798198,-4.033936499999999,0.46233279999999993
23349,10:53:18.076000,11.1014357,13.141207699999999,6.9357042,5.9798198,-4.033936499999999,0.46233279999999993
23350,10:53:18.086000,10.4071474,13.7014275,4.1968551,5.463028400000001,-3.3412163,1.0768628
23351,10:53:18.102000,9.521330800000001,13.0454435,1.1180441,5.463028400000001,-3.3412163,1.0768628
23352,10:53:18.106000,9.3752909,11.163682000000001,-0.5075489000000001,4.8912587,-3.288682,0.8838295
23353,10:53:18.119000,9.3298035,8.783947900000001,-3.1649985000000003,4.8912587,-3.288682,0.8838295
23354,10:53:18.124000,9.377684599999998,6.6053185,-5.384327900000001,4.907141200000001,-3.2410345,0.5808406
23355,10:53:18.133000,8.9132299,5.2885642,-7.290030499999999,5.0305362,-3.2495866,0.4806588
23356,10:53:18.143000,8.022625,4.0029330000000005,-8.5493269,5.2834339,-3.3228902999999996,0.5466321
23357,10:53:18.153000,7.1176553,3.8951987999999997,-9.3441668,5.5057887999999995,-3.2532517999999997,0.5173106
23358,10:53:18.165000,6.399426,4.5655465,-9.246008900000001,5.708595799999999,-2.7999902000000003,-0.3635563
23359,10:53:18.173000,6.1504392999999995,6.004399299999999,-8.5900259,5.708595799999999,-2.7999902000000003,-0.3635563
23360,10:53:18.183000,6.1624098,7.6228104000000005,-7.4815583,5.4361501,-2.5739701,-0.8363655999999999
23361,10:53:18.192000,6.7609348,8.2740059,-5.8463888,4.6664605,-2.5128837,-1.0440595
23362,10:53:18.202000,7.9962902,8.1495123,-4.412324,3.4496179,-2.5568659,-1.0257336
23363,10:53:18.214000,9.7774992,7.946013499999999,-2.252847,0.2670128,-2.3076332,-0.40265159999999994
23364,10:53:18.221000,11.3049335,8.252458599999999,-0.7661116,0.2670128,-2.3076332,-0.40265159999999994
23365,10:53:18.232000,12.1380806,8.72649,-0.8427228000000001,-1.5020514999999999,-1.2190721000000002,0.583284
23366,10:53:18.241000,11.6927776,8.429621699999998,-3.1051458999999997,-1.5020514999999999,-1.2190721000000002,0.583284
23367,10:53:18.250000,10.206043199999998,8.326675400000001,-7.060196899999999,-0.8838564,-0.5336819,0.8618383
23368,10:53:18.260000,7.17272,11.7478428,-9.6147013,0.8155693,-0.043768400000000006,1.0573151
23369,10:53:18.270000,3.5145371,17.4960747,-10.191678,3.0330081,0.2017992,1.2039226
23370,10:53:18.285000,4.9893022,18.3603439,-9.7056761,4.777638,0.0955087,0.6798006
23371,10:53:18.288000,8.4439859,13.6607265,-10.783021000000002,4.777638,0.0955087,0.6798006
23372,10:53:18.300000,11.276205099999999,9.846927599999999,-12.334397300000001,1.0513631,0.1944688,1.0023372
23373,10:53:18.309000,12.8778572,8.2763996,-12.7892761,1.0513631,0.1944688,1.0023372
23374,10:53:18.319000,13.1005077,8.788737300000001,-12.7150583,-0.36462140000000004,1.0008101,0.005406
23375,10:53:18.331000,12.9568624,9.5380888,-12.5283194,-0.6407322,1.7277393,-0.36722140000000003
23376,10:53:18.337000,10.459816900000002,10.9865189,-12.4110079,-0.6407322,1.7277393,-0.36722140000000003
23377,10:53:18.348000,8.0274134,11.5778618,-11.6089849,-1.3212355,2.8676128,-0.3207957
23378,10:53:18.357000,7.8550382,11.261840800000002,-10.9817314,-1.3212355,2.8676128,-0.3207957
23379,10:53:18.367000,8.582843800000001,10.6034632,-10.088731800000001,-2.814189,2.9775683999999996,-1.2028843
23380,10:53:18.379000,9.131093,10.742321,-9.0903931,-2.814189,2.9775683999999996,-1.2028843
23381,10:53:18.386000,9.528513,11.1205893,-7.708998200000001,-4.0041533,3.0239942,-0.8803478000000001
23382,10:53:18.398000,9.803834,11.3480282,-6.059464,-4.397550099999999,3.1596062000000003,-1.0281771
23383,10:53:18.415000,9.064058300000001,11.513220800000001,-2.5568974,-4.397550099999999,3.1596062000000003,-1.0281771
23384,10:53:18.423000,8.3745575,11.278598800000001,-1.1371969,-5.1159267,3.7252669000000003,-1.8540661
23385,10:53:18.433000,7.6587219,10.742321,-0.28729190000000004,-5.511767400000001,3.9390695,-2.0690906000000004
23386,10:53:18.447000,6.8878222000000004,9.957057,0.2298335,-6.373086499999999,4.0697947,-2.0996337000000005
23387,10:53:18.454000,6.025946599999999,8.846195199999999,0.9073634,-6.373086499999999,4.0697947,-2.0996337000000005
23388,10:53:18.465000,5.1951947,7.2996068,2.6837847000000004,-6.9497428,4.055133799999999,-1.895605
23389,10:53:18.473000,4.1609435,5.4537568,3.7874641000000002,-6.9497428,4.055133799999999,-1.895605
23390,10:53:18.483000,2.9615002,3.3972260999999997,4.3141661,-7.4421,4.035586400000001,-1.4704431
23391,10:53:18.496000,1.9248554,1.1419852,5.6644373,-7.613142,3.8059011,-1.3067313
23392,10:53:18.502000,0.7876585,-1.2401432,6.5215249,-7.613142,3.8059011,-1.3067313
23393,10:53:18.513000,-0.1891338,-3.58636,6.835152099999999,-7.3651309000000005,3.2402403,-1.5889508999999997
23394,10:53:18.521000,-0.8331464,-5.3771458,7.601263499999999,-7.3651309000000005,3.2402403,-1.5889508999999997
23395,10:53:18.531000,-1.2760546,-6.428154900000001,8.724096300000001,-6.3339910999999995,2.4876549,-2.08986
23396,10:53:18.542000,-2.0206193999999997,-6.569407000000001,9.131093,-6.3339910999999995,2.4876549,-2.08986
23397,10:53:18.551000,-2.497045,-6.2222624,10.062397,-4.6064658,1.7411782999999998,-1.9298133999999998
23398,10:53:18.562000,-2.6574495,-6.2078981,11.194806100000001,-3.9589492999999996,1.3954289,-1.8076404
23399,10:53:18.570000,-2.6526616,-6.8638811,11.889094400000001,-3.9589492999999996,1.3954289,-1.8076404
23400,10:53:18.580000,-2.1403244,-8.1997881,12.377491000000001,-3.5765481,0.9262847,-1.6744720000000002
23401,10:53:18.589000,-1.5346173,-9.1837626,12.339184800000002,-3.5765481,0.9262847,-1.6744720000000002
23402,10:53:18.599000,-1.0150979,-9.528513,11.307328199999999,-3.5557787000000003,0.7075952,-1.5376382
23403,10:53:18.611000,-0.2513804,-9.406414,11.173258800000001,-2.9730136000000003,0.3887238,-1.0587204
23404,10:53:18.619000,0.3519325,-8.8940773,10.8213263,-2.9730136000000003,0.3887238,-1.0587204
23405,10:53:18.631000,0.8570873999999999,-8.5373564,11.2450819,-2.0481646000000002,0.10650430000000001,-0.2511572
23406,10:53:18.638000,1.0534035,-7.8143387,11.5323744,-2.0481646000000002,0.10650430000000001,-0.2511572
23407,10:53:18.647000,1.0845268,-6.4880075,11.6065912,-1.4617343999999999,0.080848,0.1214703
23408,10:53:18.660000,1.1156501,-4.8145323,11.7861481,-0.8301003,0.1431562,0.3707031
23409,10:53:18.667000,1.2185962,-2.7795486,11.8914881,-0.0885105,0.22623379999999998,0.5173106
23410,10:53:18.680000,1.3502717,-0.629648,11.834030199999999,1.2786046999999998,0.38750209999999996,0.759213
23411,10:53:18.686000,1.5106763,1.4125183000000001,11.707142800000002,1.2786046999999998,0.38750209999999996,0.759213
23412,10:53:18.697000,1.6806574,3.0692346,11.283387199999998,1.8406003,0.6794954000000001,0.7262264
23413,10:53:18.706000,1.8075444999999999,3.9358983,10.7734442,1.8406003,0.6794954000000001,0.7262264
23414,10:53:18.716000,1.6543223000000002,4.1824902999999996,10.086338,1.3067045,1.1205397,0.46233279999999993
23415,10:53:18.727000,1.0534035,4.0244799,9.4112024,0.7642566,1.3355641000000003,0.4501155
23416,10:53:18.735000,0.28010959999999996,3.4929900000000003,8.8677416,0.7642566,1.3355641000000003,0.4501155
23417,10:53:18.746000,-0.5506426999999999,2.8441892,8.216547,-0.1092799,1.5151583999999998,0.5393018
23418,10:53:18.754000,-1.3430893,2.1427186000000003,8.1543007,-0.1092799,1.5151583999999998,0.5393018
23419,10:53:18.763000,-1.8266973000000002,1.5872875,7.9244671,-0.32308259999999994,1.476063,0.5234193
23420,10:53:18.776000,-1.9176731,0.9672159,7.9196786999999995,-0.4867943,1.3893201000000002,0.4415634
23421,10:53:18.783000,-1.5801051000000002,0.36629709999999993,8.0752954,-0.6419539000000001,1.2744777,0.2949559
23422,10:53:18.794000,-1.0988913999999999,-0.30883879999999997,8.0681133,-0.7629051,1.0252447,0.012736399999999998
23423,10:53:18.802000,-0.8187817,-0.8475109000000001,7.981925,-0.7629051,1.0252447,0.012736399999999998
23424,10:53:18.812000,-0.6128892,-1.2138082000000001,8.137541800000001,-0.5698719,0.848094,-0.03857619999999999
23425,10:53:18.822000,-0.6248598000000001,-1.3119662,8.082477599999999,-0.5698719,0.848094,-0.03857619999999999
23426,10:53:18.831000,-0.7349883,-1.2329608,8.1040249,-0.415934,0.8041118,-0.07034119999999999
23427,10:53:18.843000,-0.9217280000000001,-0.8882107,8.5014448,-0.059189,0.6623912,-0.1851838
23428,10:53:18.851000,-1.3454834999999998,-0.3974204,8.901259399999999,0.121627,0.5744267,-0.1864055
23429,10:53:18.863000,-1.9871020000000001,0.1268872,9.0520868,0.265791,0.4925708,-0.1399798
23430,10:53:18.870000,-2.3629756,0.6990768,8.9946289,0.36352940000000006,0.3716196,-0.0825585
23431,10:53:18.879000,-2.5880208,1.211414,8.6019974,0.36352940000000006,0.3716196,-0.0825585
23432,10:53:18.889000,-2.2887584999999997,1.6543223000000002,8.1734533,0.44294179999999994,0.19080360000000002,-0.0495718
23433,10:53:18.899000,-1.7955738999999997,1.9871020000000001,7.926860799999999,0.49181099999999994,-0.030329400000000003,-0.0483501
23434,10:53:18.909000,-1.26169,2.3462167000000003,7.914890299999999,0.44294179999999994,-0.4310567,-0.0239155
23435,10:53:18.919000,-0.8858166,2.7675784,7.8909497,0.44294179999999994,-0.4310567,-0.0239155
23436,10:53:18.929000,-0.6679536,3.3277972,8.1471176,0.2560172,-0.5898815,-0.0104765
23437,10:53:18.940000,-0.5721896,3.5791779000000004,8.676214199999999,0.2560172,-0.5898815,-0.0104765
23438,10:53:18.948000,-0.5506426999999999,3.6438181000000003,8.9204121,0.2376913,-0.6082075,-0.0862237
23439,10:53:18.959000,-0.5961305,3.7946465,8.659455300000001,-0.010319799999999999,-0.47992579999999996,-0.1399798
23440,10:53:18.968000,-0.581766,3.8066169999999997,8.218940700000001,-0.010319799999999999,-0.47992579999999996,-0.1399798
23441,10:53:18.977000,-0.6248598000000001,3.5145371,7.9124966,-0.2607744,-0.4163959,-0.10821480000000001
23442,10:53:18.987000,-0.8331464,2.9662883,7.914890299999999,-0.4990116,-0.3724136,-0.09111060000000001
23443,10:53:18.996000,-1.1180441,1.8650029,8.1949997,-0.7787876,-0.27467529999999996,-0.0593456
23444,10:53:19.010000,-1.7572685000000001,0.7349883,7.6754804000000005,-1.3151268999999999,-0.0669813,0.11780510000000001
23445,10:53:19.016000,-2.039772,-0.40220859999999997,7.701815600000001,-1.3151268999999999,-0.0669813,0.11780510000000001
23446,10:53:19.026000,-2.1235654,-1.26169,7.835885,-1.4177521,-0.0596509,0.172783
23447,10:53:19.036000,-1.5465877000000001,-1.6615044999999997,8.1183891,-1.2430449,-0.0388815,0.1324659
23448,10:53:19.045000,-0.8499051,-1.3694245,8.400893199999999,-0.8288785,-0.0706465,0.0396144
23449,10:53:19.058000,-0.40220859999999997,-0.4620611,8.618755300000002,0.1375094,-0.0376598,0.054275199999999996
23450,10:53:19.064000,-0.3208092,0.33756790000000003,8.6474848,0.1375094,-0.0376598,0.054275199999999996
23451,10:53:19.084000,-0.8882107,0.6942885999999999,8.137541800000001,0.3708597,0.17736459999999998,0.09947919999999999
23452,10:53:19.094000,-1.5298291000000002,0.6128892,8.0345955,-0.2729917,0.6440653000000001,0.18011329999999998
23453,10:53:19.103000,-2.0637131,0.5290958,7.9915012999999995,-0.2729917,0.6440653000000001,0.18011329999999998
23454,10:53:19.113000,-2.2887584999999997,0.1556164,7.881372900000001,-0.6321800999999999,0.6074134,0.2192087
23455,10:53:19.124000,-2.1977827999999997,-0.4429083,7.809549799999999,-1.3114617,0.3300808,0.1764481
23456,10:53:19.132000,-1.9033084999999998,-1.2712663,8.0896597,-1.3114617,0.3300808,0.1764481
23457,10:53:19.142000,-1.6160166,-1.7859976000000002,8.412862800000001,-1.7048584999999998,-0.11951569999999999,0.186222
23458,10:53:19.151000,-1.3287247,-2.3246701,8.597209,-1.7048584999999998,-0.11951569999999999,0.186222
23459,10:53:19.161000,-1.0941031,-2.8417952,8.707337400000002,-1.7195194,-0.2258061,0.2057697
23460,10:53:19.170000,-0.9815805000000001,-3.2823095,8.7695837,-1.6572112,-0.27223179999999997,0.17522639999999998
23461,10:53:19.180000,-1.0055215,-3.5384779,8.676214199999999,-1.5215992,-0.27467529999999996,0.13979629999999998
23462,10:53:19.190000,-1.0462211,-3.7611291,8.695366900000002,-1.206393,-0.23435820000000004,0.054275199999999996
23463,10:53:19.199000,-1.2640841,-3.8760457,8.7552195,-1.206393,-0.23435820000000004,0.054275199999999996
23464,10:53:19.209000,-1.4843413,-3.9646275,8.408075300000002,-1.0341291,-0.1109636,0.0335058
23465,10:53:19.222000,-1.64714,-4.237555,8.391316400000001,-0.8985171000000001,-0.054764,0.0102929
23466,10:53:19.229000,-1.6638986,-4.476964499999999,8.4463797,-0.8032222,-0.0914159,-0.021472
23467,10:53:19.243000,-1.5729228000000002,-4.5320292,8.580450099999998,-0.5943065,-0.24046689999999998,-0.0507935
23468,10:53:19.248000,-1.6758691000000003,-4.558363900000001,8.6786079,-0.5943065,-0.24046689999999998,-0.0507935
23469,10:53:19.259000,-1.8865498,-4.4841470999999995,8.7647963,-0.4501424,-0.15128060000000002,-0.0959975
23470,10:53:19.267000,-2.2313001,-4.5799112,9.2029161,-0.4501424,-0.15128060000000002,-0.0959975
23471,10:53:19.277000,-2.4946511,-4.7834096,9.8181992,-0.402495,-0.0645378,-0.10699310000000001
23472,10:53:19.290000,-2.7436373,-5.1018243,9.9929676,-0.3401868,0.22623379999999998,-0.039798
23473,10:53:19.297000,-2.7795486,-5.595008900000001,10.055214900000001,-0.3401868,0.22623379999999998,-0.039798
23474,10:53:19.307000,-2.4611335,-6.035522900000001,9.6673708,-0.2461136,0.4681362,0.0774881
23475,10:53:19.315000,-2.106807,-5.987640900000001,8.8749237,-0.2461136,0.4681362,0.0774881
23476,10:53:19.324000,-2.1211715,-5.4633335999999995,8.178241700000001,-0.11783199999999999,0.5512138000000001,0.13490929999999998
23477,10:53:19.336000,-2.3749461,-5.214346900000001,7.934042900000001,0.22180879999999997,0.6513956,0.27052129999999996
23478,10:53:19.344000,-2.863342,-4.8959322,7.5797167000000005,0.22180879999999997,0.6513956,0.27052129999999996
23479,10:53:19.354000,-3.3301911,-4.3955655,7.7042098,0.7483741,0.5634311,0.4036898
23480,10:53:19.364000,-3.4618669,-3.8592873,7.881372900000001,0.7483741,0.5634311,0.4036898
23481,10:53:19.378000,-3.1506341,-3.2392156,8.221335400000001,1.213853,0.1810298,0.316947
23482,10:53:19.386000,-2.7196963,-2.640691,8.661849,1.2566136,-0.062094399999999994,0.2570823
23483,10:53:19.392000,-2.1546887999999997,-2.7723663,8.8629541,1.1466579,-0.22702779999999997,0.2057697
23484,10:53:19.404000,-1.8937321,-2.5880208,8.822254199999998,1.0012722,-0.275897,0.2118783
23485,10:53:19.412000,-1.623199,-2.7675784,8.829436300000001,1.0012722,-0.275897,0.2118783
23486,10:53:19.421000,-1.4915235,-3.0596582999999997,8.6786079,0.8375604,-0.2514624,0.19843929999999999
23487,10:53:19.431000,-1.6279871000000001,-3.2320333,8.5397501,0.7031702,-0.18915420000000002,0.12269200000000001
23488,10:53:19.442000,-1.9200671999999999,-3.6222714999999996,8.3410397,0.6005449,-0.0889724,0.06038380000000001
23489,10:53:19.454000,-2.2289058999999996,-3.8449225,8.0393839,0.446607,0.0674089,-0.0630108
23490,10:53:19.461000,-2.4635274,-3.8808341,7.8430675999999995,0.446607,0.0674089,-0.0630108
23491,10:53:19.471000,-2.4874685000000003,-3.9502629999999996,7.816732400000001,0.44416350000000004,0.014874600000000002,-0.18762720000000002
23492,10:53:19.481000,-2.4419807999999996,-3.8880162000000005,7.649145599999999,0.44416350000000004,0.014874600000000002,-0.18762720000000002
23493,10:53:19.490000,-2.4276164000000002,-3.6988826,7.4935288,0.44294179999999994,-0.03277290000000001,-0.22916599999999998
23494,10:53:19.503000,-2.3964927000000005,-3.5696013,7.3929772,0.46248950000000005,-0.10729839999999999,-0.25237889999999996
23495,10:53:19.509000,-2.3773401,-3.3924379,7.3067894,0.46248950000000005,-0.10729839999999999,-0.25237889999999996
23496,10:53:19.521000,-2.5018332,-3.2799153,7.278060000000001,0.43194620000000006,-0.05109880000000001,-0.30124809999999996
23497,10:53:19.529000,-2.6789966,-3.2894917,7.237360499999999,0.43194620000000006,-0.05109880000000001,-0.30124809999999996
23498,10:53:19.539000,-2.7627900000000003,-3.3206151,7.366642,0.3842988,-0.0266642,-0.3183523
23499,10:53:19.549000,-2.5688679,-3.5408720999999996,7.6970277000000005,0.34153829999999996,-0.0376598,-0.3440086
23500,10:53:19.559000,-2.2384822,-3.4977782,8.0920544,0.324434,-0.1024114,-0.3684432
23501,10:53:19.570000,-2.1618712,-3.0045941000000003,7.9555898,0.4087334,-0.1048549,-0.4319731
23502,10:53:19.578000,-2.159477,-2.5880208,8.0274134,0.4087334,-0.1048549,-0.4319731
23503,10:53:19.588000,-2.1929946,-2.6311145000000002,8.0322018,0.4343897,0.0209832,-0.5040551
23504,10:53:19.599000,-2.2624232999999996,-2.7340607999999995,7.6323872,0.2963343,0.17736459999999998,-0.585911
23505,10:53:19.607000,-2.3198817000000003,-2.9088298999999997,7.2421484,-0.189914,0.3190852,-0.5944632
23506,10:53:19.619000,-2.2480588,-3.3732852999999996,6.4736428,-0.3914994,0.32275040000000005,-0.5736938
23507,10:53:19.626000,-2.0014665000000003,-3.6486065,6.191139700000001,-0.3914994,0.32275040000000005,-0.5736938
23508,10:53:19.636000,-1.6303812,-3.8880162000000005,6.035522900000001,-0.48923779999999994,0.2140165,-0.5553678000000001
23509,10:53:19.646000,-1.4053360000000001,-3.7132473,6.1025577,-0.4367034000000001,0.07107410000000002,-0.5517025999999999
23510,10:53:19.655000,-1.4771589,-3.4283495000000004,6.2150807,-0.32552600000000004,0.0771828,-0.559033
23511,10:53:19.668000,-1.7979681,-3.272733,6.3299971,-0.2913176,0.36184570000000005,-0.47351190000000004
23512,10:53:19.674000,-2.2265117,-3.1841512,6.1169224,-0.2913176,0.36184570000000005,-0.47351190000000004
23513,10:53:19.685000,-2.5066216,-3.0788109,6.0307345,-0.3377433,0.509675,-0.36477800000000005
23514,10:53:19.695000,-2.5521092,-2.9710765,5.9373651,-0.3377433,0.5402182,-0.25848760000000004
23515,10:53:19.713000,-2.0254076000000003,-2.5856267999999996,6.2055039,-0.2656613,0.46569279999999996,-0.1864055
23516,10:53:19.723000,-1.7309333999999998,-2.1882062,6.2605680999999995,0.044657999999999996,0.19691229999999998,-0.1363146
23517,10:53:19.733000,-1.575317,-1.8410618000000003,6.4880075,0.3329861,0.0661872,-0.0837802
23518,10:53:19.742000,-1.5489819,-1.3454834999999998,6.6053185,0.3329861,0.0661872,-0.0837802
23519,10:53:19.755000,-1.4580061000000002,-0.8786343000000001,6.861486900000001,0.4771502,0.0576351,-0.1033279
23520,10:53:19.762000,-1.3981537,-0.3782676,6.9572511,0.4771502,0.0576351,-0.1033279
23521,10:53:19.772000,-1.4125183000000001,0.17716329999999997,7.0218916,0.4221724,0.0967304,-0.10577139999999999
23522,10:53:19.790000,-1.6327753999999999,0.6128892,6.763329,0.021445099999999998,0.320307,-0.0422414
23523,10:53:19.792000,-1.8937321,0.8115995,6.6148949,0.021445099999999998,0.320307,-0.0422414
23524,10:53:19.801000,-2.3988869,0.7206236999999999,6.4090023,-0.3047566,0.43392780000000003,-0.08011510000000001
23525,10:53:19.810000,-2.8944654,0.265745,6.140863400000001,-0.7152578,0.5231140000000001,-0.1974011
23526,10:53:19.820000,-3.4187729,-0.5985246999999999,6.0187645,-1.1990626,0.6465086999999999,-0.37943879999999996
23527,10:53:19.829000,-3.7587349000000003,-1.9416142,6.310844400000001,-1.8013753000000001,0.7430253000000001,-0.5944632
23528,10:53:19.839000,-3.9813862,-3.3541322,6.672352799999999,-2.4928741000000003,0.730808,-0.7838312
23529,10:53:19.850000,-4.1202440000000005,-4.747498,6.8303633,-3.1513863,0.6061916,-0.8950085999999999
23530,10:53:19.859000,-4.2806487,-6.1839571,7.218207400000001,-3.8599894,0.16759079999999998,-0.8717958
23531,10:53:19.868000,-4.6230044,-7.634780900000001,7.852644000000001,-3.8599894,0.16759079999999998,-0.8717958
23532,10:53:19.878000,-5.1736474,-8.8797121,8.702549000000001,-3.7084949000000003,-0.0657596,-0.8058224
23533,10:53:19.888000,-5.738654599999999,-11.1971998,13.4620171,-3.2344638999999997,-0.2661232,-0.6738755999999999
23534,10:53:19.901000,-8.3601933,-10.3808117,12.099775300000001,-0.6810493000000001,0.4241539000000001,-0.0459066
23535,10:53:19.907000,-7.0386505,-7.797579300000001,13.588904399999999,0.7825826,-0.5691121,0.3511555
23536,10:53:19.919000,-4.5176644,-5.7099257,15.338991199999999,1.7624096000000002,-1.5904778999999998,0.4757719
23537,10:53:19.926000,-1.3526658,-4.295013,16.1122856,2.4600169999999997,-2.4786754,0.5270845000000001
23538,10:53:19.936000,0.9672159,-2.5808383999999998,15.877662699999998,2.717802,-2.8488592999999995,0.7164524999999999
23539,10:53:19.945000,2.056531,-1.0988913999999999,15.1809797,2.8155403,-2.6839258999999998,0.9522464
23540,10:53:19.954000,1.9847078000000002,-0.5793719,14.163488399999999,2.8155403,-2.6839258999999998,0.9522464
23541,10:53:19.965000,0.9600335999999999,-1.0342506999999999,12.7461824,2.563864,-1.5464957000000001,0.7066786999999999
23542,10:53:19.974000,-0.4716375,-1.9583727,11.163682000000001,2.563864,-1.5464957000000001,0.7066786999999999
23543,10:53:19.984000,-2.5592916,-3.102752,9.3800793,2.2107842,-0.9637306999999999,0.5319714
23544,10:53:19.995000,-3.8521049,-3.9095633000000003,8.5110207,1.9395603,-0.40295690000000006,0.48188050000000004
23545,10:53:20.004000,-3.7563410000000004,-4.687645400000001,7.835885,1.8259395,-0.47748240000000003,0.4501155
23546,10:53:20.014000,-3.0764169999999997,-5.1760416,7.5964756,2.2120061,-1.7395289,0.4611111
23547,10:53:20.024000,-1.3909714,-5.0539427,7.3043957,2.2120061,-1.7395289,0.4611111
23548,10:53:20.034000,0.0335174,-4.6493402,6.9021864,3.2907932,-2.6546042,0.497763
23549,10:53:20.043000,1.2976014999999999,-4.0005388,6.9524631999999995,3.2907932,-2.6546042,0.497763
23550,10:53:20.053000,1.9823137999999998,-2.8441892,7.0338621,3.9260924,-2.7951033,0.49531949999999997
23551,10:53:20.063000,2.0062547,-1.3646363000000001,7.1559610000000005,4.578496,-2.8647418,0.5026499
23552,10:53:20.072000,1.6710808000000001,0.0790053,7.400158900000001,5.2260127,-2.8134291,0.542967
23553,10:53:20.085000,1.3933655,1.333513,7.682663000000001,6.0299106,-2.5727484,0.5197541
23554,10:53:20.091000,1.4197004999999998,2.8034897,8.2261238,6.0299106,-2.5727484,0.5197541
23555,10:53:20.101000,2.1211715,4.3141661,9.2484026,6.073893099999999,-2.5593095,0.48921090000000006
23556,10:53:20.114000,3.3996203,6.045099700000001,10.6154337,5.7513566,-2.9013937000000003,0.5735102
23557,10:53:20.119000,5.1808295,7.946013499999999,11.704749099999999,5.7513566,-2.9013937000000003,0.5735102
23558,10:53:20.132000,6.827969599999999,9.6075182,11.7837543,5.3298597,-3.206826,0.8642818000000001
23559,10:53:20.140000,7.7257565999999995,11.144530300000001,10.9434252,5.3298597,-3.206826,0.8642818000000001
23560,10:53:20.149000,7.9124966,11.8627586,9.2651625,5.076962,-2.8745155,1.2222486000000001
23561,10:53:20.160000,7.337912599999999,11.7574186,6.557436500000001,5.076962,-2.8745155,1.2222486000000001
23562,10:53:20.169000,6.569407000000001,11.0296125,3.4570785,5.0696316,-2.7217994,1.2527918
23563,10:53:20.181000,5.539944599999999,10.0145149,0.1484341,5.0610795,-2.6863692,1.2393528
23564,10:53:20.188000,4.7858032999999995,9.2603741,-2.0972304,5.0317578,-2.7975466,1.3102131000000001
23565,10:53:20.198000,4.338107099999999,9.0999689,-2.837007,4.963340799999999,-3.3351076,1.4006211000000002
23566,10:53:20.208000,4.405141400000001,8.973081599999999,-2.3869164,4.963340799999999,-3.3351076,1.4006211000000002
23567,10:53:20.219000,4.1872787,9.3657141,0.8618754999999999,4.7519817,-3.6833004999999996,1.3077697
23568,10:53:20.235000,4.8576264,5.3220816,0.1987102,4.268177,-4.0217195,1.2198051
23569,10:53:20.249000,4.8552327,4.3117719,0.1651928,1.9786557,-4.7938523,1.1086278
23570,10:53:20.256000,5.1018243,3.3541322,-0.0311233,1.9786557,-4.7938523,1.1086278
23571,10:53:20.266000,5.5327621,3.0093822,-0.44051409999999996,1.6084716000000001,-4.6631274000000005,0.5991665
23572,10:53:20.275000,6.119316599999999,3.1219049,-0.7589293,1.6084716000000001,-4.6631274000000005,0.5991665
23573,10:53:20.285000,6.710659,3.7084589,-0.5674013000000001,1.7355316000000003,-4.5091890999999995,0.22898249999999998
23574,10:53:20.297000,7.270877799999999,4.201643499999999,-0.40220859999999997,2.2975271,-3.9117638999999995,-0.1399798
23575,10:53:20.304000,7.6323872,4.869597,-0.7397765000000001,2.2975271,-3.9117638999999995,-0.1399798
23576,10:53:20.314000,7.8861612999999995,5.3771458,-1.5250409,2.5711944,-3.5647926,-0.1802969
23577,10:53:20.323000,8.2740059,6.6125007,-1.3622421,2.8363097,-3.2410345,-0.2083966
23578,10:53:20.333000,8.467927,7.7903975999999995,-2.6957552000000002,3.4080790999999997,-2.3357329,-0.44052520000000006
23579,10:53:20.345000,8.3793459,8.5660849,-3.102752,3.4838263999999994,-1.8739192,-0.6543279000000001
23580,10:53:20.353000,8.1997881,9.686524400000001,-3.3493443,3.4838263999999994,-1.8739192,-0.6543279000000001
23581,10:53:20.364000,8.307522800000001,10.3257484,-3.6031184,3.5119262000000004,-2.1121564,-0.6714321
23582,10:53:20.372000,8.640301699999998,10.0097265,-3.5791779000000004,3.5119262000000004,-2.1121564,-0.6714321
23583,10:53:20.382000,8.6259384,9.2819214,-4.759468599999999,3.3298883000000004,-2.2331076000000003,-0.7251882
23584,10:53:20.392000,8.477503800000001,8.72649,-5.2287116,3.1038685,-2.1353693,-0.7679486999999999
23585,10:53:20.401000,8.4391975,8.051354400000001,-5.4609389,3.0134604,-1.6686685,-0.5883545
23586,10:53:20.412000,8.479898500000001,7.618022,-5.8104777,3.0134604,-1.6686685,-0.5883545
23587,10:53:20.420000,7.8334908,7.4767703999999995,-5.678801999999999,2.9853606,-1.4560876,-0.49305959999999993
23588,10:53:20.430000,7.055409,7.706604,-5.6141615,3.2688019,-0.4579347,-0.23527470000000003
23589,10:53:20.440000,6.8303633,7.816732400000001,-5.4010868,3.5070392999999997,0.0576351,-0.2193922
23590,10:53:20.450000,6.849516400000001,7.9196786999999995,-5.901453500000001,3.6988506,0.4620275,-0.2279443
23591,10:53:20.463000,7.249331,7.3834004,-7.1918726,3.7978108,0.8468724,-0.23038779999999998
23592,10:53:20.469000,7.1894784,6.9141569,-9.0832109,3.7978108,0.8468724,-0.23038779999999998
23593,10:53:20.479000,6.9500684999999995,6.468854900000001,-10.275471699999999,3.6169949,1.8022647,-0.2364964
23594,10:53:20.489000,7.4576173,5.5495209999999995,-11.8579712,3.6169949,1.8022647,-0.2364964
23595,10:53:20.499000,7.7281508,4.781014900000001,-12.8323689,3.0317863999999997,2.2323134,-0.37943879999999996
23596,10:53:20.508000,8.791131,5.1018243,-13.1507835,1.8992432000000001,2.4778812,-0.5223810999999999
23597,10:53:20.516000,12.037529,5.178435299999999,-12.013588,0.41972890000000007,2.5963887999999997,-0.5468156999999999
23598,10:53:20.530000,15.049304999999999,4.6660986,-12.6169004,-2.6309294999999997,2.3593732999999997,-0.6836494000000001
23599,10:53:20.536000,16.1673489,3.8736517,-13.986325299999999,-2.6309294999999997,2.3593732999999997,-0.6836494000000001
23600,10:53:20.547000,14.407686199999999,3.4642611000000003,-14.699766199999997,-3.6095347,2.9885639999999998,-0.5187159
23601,10:53:20.559000,11.929794300000001,3.8353462,-14.2305231,-3.8050115,3.8486616999999996,-0.2572658
23602,10:53:20.567000,10.3664484,5.2335,-12.4205837,-2.7653198,4.4900699,-0.5236028
23603,10:53:20.578000,9.8948097,6.8183932,-9.9881802,-2.0848165,4.3642316,-1.1491283
23604,10:53:20.585000,10.095913900000001,8.4200449,-7.5916872,-2.0848165,4.3642316,-1.1491283
23605,10:53:20.596000,10.191678,9.7248287,-5.5447326,-1.5741334999999999,4.0539122,-2.2486848999999998
23606,10:53:20.605000,9.9857864,10.4478474,-4.2591014000000005,-1.5741334999999999,4.0539122,-2.2486848999999998
23607,10:53:20.615000,9.6147013,10.3688421,-3.5743894999999997,-3.0353220000000003,4.0197039,-2.7703632999999996
23608,10:53:20.624000,9.2603741,9.2603741,-3.2655509,-3.0353220000000003,4.0197039,-2.7703632999999996
23609,10:53:20.634000,8.669032099999999,7.687450900000001,-3.2200627,-4.2057385,4.0074863,-2.9047534
23610,10:53:20.645000,7.9388312999999995,6.4209727999999995,-2.9854412,-6.094532,3.9879385999999997,-2.8448887000000003
23611,10:53:20.653000,6.9764037,5.3747516,-2.2360882999999996,-6.094532,3.9879385999999997,-2.8448887000000003
23612,10:53:20.664000,5.6644373,4.3021955,-1.2185962,-6.5441289000000005,4.0539122,-2.5773299
23613,10:53:20.673000,4.1920671,3.5815718,0.1197049,-6.5441289000000005,4.0539122,-2.5773299
23614,10:53:20.682000,2.6047795,2.9543178,1.3885771999999998,-6.316886900000001,4.0856771,-2.4722612
23615,10:53:20.693000,1.1467732,2.5377447999999996,2.7173021,-5.126922599999999,3.9231870000000004,-2.4197268
23616,10:53:20.701000,-0.20110429999999999,2.1642652,3.7180352,-5.126922599999999,3.9231870000000004,-2.4197268
23617,10:53:20.712000,-1.1156501,2.2911525,4.4219003,-3.3212066,3.1730452000000002,-2.3928487
23618,10:53:20.721000,-1.4340651000000002,2.7939133999999997,5.1281595,-3.3212066,3.1730452000000002,-2.3928487
23619,10:53:20.730000,-1.3239366000000001,3.6198773,5.6524668,-2.5209739,2.6183801,-2.3122146
23620,10:53:20.743000,-0.9025753000000001,4.3788066,6.2940855,-1.8013753000000001,1.7656128,-2.1069641
23621,10:53:20.750000,-0.44530240000000004,4.9079027,7.0410447,-1.8013753000000001,1.7656128,-2.1069641
23622,10:53:20.760000,-0.1891338,4.974937000000001,7.069773700000001,-2.3694794,1.5921273,-1.7844275
23623,10:53:20.769000,-0.3830558,4.601458099999999,7.1392026,-2.3694794,1.5921273,-1.7844275
23624,10:53:20.779000,-1.0055215,4.3021955,7.2948189,-3.2918851000000005,1.7656128,-1.136911
23625,10:53:20.788000,-1.6591103999999999,3.9406865,7.483952499999999,-3.2918851000000005,1.7656128,-1.136911
23626,10:53:20.798000,-2.2408764,3.6581831,7.8598261,-3.5912089,1.8853423999999999,-0.8803478000000001
23627,10:53:20.811000,-2.619144,3.3972260999999997,8.491867999999998,-3.6339693,1.9830806,-0.7642835
23628,10:53:20.818000,-2.7268784,3.3397677000000003,9.1765804,-3.6339693,1.9830806,-0.7642835
23629,10:53:20.827000,-2.5257742000000003,3.8473167,10.1749201,-3.0072222,1.8376949,-0.9157780000000001
23630,10:53:20.837000,-2.0086489,4.5320292,10.953002,-3.0072222,1.8376949,-0.9157780000000001
23631,10:53:20.847000,-1.5920756,5.2646232,11.3623934,-2.6382599,1.7167436999999999,-1.0831548999999998
23632,10:53:20.866000,-1.3287247,5.8942709,11.673625,-2.3768097999999998,1.6617658,-1.2651925
23633,10:53:20.876000,-1.3861831,5.4920626,11.4126692,-2.5808387,1.7301826,-1.4655561000000001
23634,10:53:20.886000,-1.5848933,4.759468599999999,10.7471094,-3.053648,1.8034866000000003,-1.5388600000000001
23635,10:53:20.895000,-2.0637131,3.610301,9.9953623,-4.1299915,1.9806373,-1.5608511
23636,10:53:20.905000,-2.8082778,2.2432703999999997,9.6721592,-4.1299915,1.9806373,-1.5608511
23637,10:53:20.914000,-3.8592873,0.7325941999999999,9.415989900000001,-4.4378671999999995,2.1199142999999996,-1.3678179
23638,10:53:20.926000,-5.1880121,-0.6583770999999999,9.3537436,-4.2998118,2.1529008999999997,-1.2945141000000002
23639,10:53:20.934000,-6.557436500000001,-1.9224613000000002,9.6625834,-4.2998118,2.1529008999999997,-1.2945141000000002
23640,10:53:20.943000,-7.653933500000001,-3.1314812,9.588364599999998,-3.7475902999999997,1.9329898,-1.3213921999999998
23641,10:53:20.953000,-7.8694024,-4.5631518,9.9259329,-3.7475902999999997,1.9329898,-1.3213921999999998
23642,10:53:20.963000,-7.2349663,-5.4896684,9.7703171,-3.1086257,1.350225,-1.2700795
23643,10:53:20.975000,-6.3802729000000005,-5.8679361,9.0329351,-3.1086257,1.350225,-1.2700795
23644,10:53:20.982000,-5.48488,-5.5854325,8.6426964,-2.6590292,1.0362403,-1.059942
23645,10:53:20.993000,-4.879172799999999,-4.9629664,9.0520868,-1.3163486999999998,0.6379566,-0.5834676
23646,10:53:21.002000,-4.4338708,-4.1130619,9.427961300000002,-1.3163486999999998,0.6379566,-0.5834676
23647,10:53:21.011000,-4.0364504,-2.8394009999999996,9.7176466,-0.027424,0.288542,-0.20350970000000002
23648,10:53:21.023000,-3.3541322,-1.673475,10.088731800000001,0.3891857,0.1138347,-0.085002
23649,10:53:21.030000,-2.5808383999999998,-0.6416184,10.3353243,0.7386004,-0.0120035,-0.0483501
23650,10:53:21.041000,-2.0421662,0.4931844,10.093520199999999,0.9475161,-0.0462119,-0.027580700000000003
23651,10:53:21.049000,-1.7907859,1.5872875,10.131826400000001,0.9475161,-0.0462119,-0.027580700000000003
23652,10:53:21.060000,-1.7524803,2.3581872,10.021697,1.0513631,-0.0058948,-0.0068113
23653,10:53:21.070000,-1.7812095000000001,2.9088298999999997,9.6889181,1.0538065,0.0991739,-0.017806799999999998
23654,10:53:21.079000,-1.673475,3.0309291000000003,9.4040203,0.8998686,0.2347859,-0.0654543
23655,10:53:21.090000,-1.6399577,2.813066,8.848588900000001,0.6225361,0.3447415,-0.1289842
23656,10:53:21.099000,-1.5633465,2.4395863999999996,8.5301743,0.28900390000000004,0.4070497,-0.170523
23657,10:53:21.109000,-1.7189629000000002,1.9392200000000002,7.9843197,-0.298648,0.3508502,-0.20350970000000002
23658,10:53:21.119000,-1.9057026000000001,1.551376,7.6850572,-0.298648,0.3508502,-0.20350970000000002
23659,10:53:21.128000,-2.2480588,1.2592959,7.653933500000001,-0.4489207,0.27632470000000003,-0.2364964
23660,10:53:21.140000,-2.7675784,1.0462211,7.8646145,-0.4538076,0.0209832,-0.3073567
23661,10:53:21.147000,-3.4690489999999996,0.9959450000000001,8.1949997,-0.4538076,0.0209832,-0.3073567
23662,10:53:21.157000,-3.9406865,0.7565352,8.8797121,-0.2143486,-0.27956220000000004,-0.2914743
23663,10:53:21.167000,-4.1489735,0.5123371,10.2156191,-0.2143486,-0.27956220000000004,-0.2914743
23664,10:53:21.177000,-3.7970405,0.0526702,12.2984848,0.39529440000000005,-0.7914668,-0.27681350000000005
23665,10:53:21.189000,-3.1937277,-0.26813909999999996,14.199399900000001,0.9438509,-0.9930521999999999,-0.2914743
23666,10:53:21.196000,-2.4587395,-0.0167587,15.128310199999998,0.9438509,-0.9930521999999999,-0.2914743
23667,10:53:21.208000,-1.8099386999999998,1.0318565,14.8984766,2.3683875,-0.7059458000000001,-0.44785559999999996
23668,10:53:21.215000,-1.1659261,2.5808383999999998,13.8809853,2.3683875,-0.7059458000000001,-0.44785559999999996
23669,10:53:21.224000,-0.8259639999999999,3.2296392999999997,12.4756489,2.8790703,-0.3369835,-0.6616583
23670,10:53:21.235000,-1.2545078,3.2559742999999997,11.067918800000001,2.8375316,0.0209832,-0.8608002
23671,10:53:21.244000,-2.2384822,3.0237467000000002,9.420779199999998,2.4331391,0.2628857,-0.82537
23672,10:53:21.255000,-2.8034897,2.3222756,7.811944,1.0611368,0.6171871999999999,-0.2951394
23673,10:53:21.262000,-2.7771543999999997,1.3287247,6.796846400000001,1.0611368,0.6171871999999999,-0.2951394
23674,10:53:21.272000,-2.1642652,0.7086533,6.306056,0.50525,0.6391783000000001,-0.31224359999999995
23675,10:53:21.282000,-1.3598481000000002,0.4548787,5.8224478,0.29511259999999995,0.5634311,-0.4808423
23676,10:53:21.291000,-0.8068113,0.44530240000000004,5.429815799999999,0.32932100000000003,0.4437016,-0.6922015
23677,10:53:21.304000,-0.9241222,0.4907902,5.097035900000001,0.4698198,0.3325242,-0.8143744
23678,10:53:21.312000,-1.6399577,0.6224656999999999,5.034789599999999,0.6506358,0.22012510000000002,-0.8143744
23679,10:53:21.324000,-2.5042272,0.8379346,5.3268695,0.8876513,0.04541780000000001,-0.7276316999999999
23680,10:53:21.332000,-3.0835993,0.8906046999999999,5.5423384,0.8876513,0.04541780000000001,-0.7276316999999999
23681,10:53:21.341000,-3.1195107,0.8929988000000001,5.626132,0.8681036,-0.32843140000000004,-0.7459576
23682,10:53:21.353000,-2.5856267999999996,1.1012853,5.8679361,0.8436690999999998,-0.6155378,-0.7593966
23683,10:53:21.360000,-1.8458501,1.5801051000000002,6.3323908,0.8436690999999998,-0.6155378,-0.7593966
23684,10:53:21.372000,-1.3454834999999998,2.0254076000000003,6.5718012,0.7764739,-0.8879834999999999,-0.7899399
23685,10:53:21.380000,-1.2640841,2.2289058999999996,6.875851600000001,0.6200926,-0.8647706000000001,-0.7899399
23686,10:53:21.389000,-1.6303812,2.1211715,7.0147095,0.39895949999999997,-0.7462628000000001,-0.7765009
23687,10:53:21.400000,-2.2145412,1.5010998,7.199055199999999,0.39895949999999997,-0.7462628000000001,-0.7765009
23688,10:53:21.409000,-2.6718142000000005,0.7924467,7.055409,0.11063139999999999,-0.5703338000000001,-0.739849
23689,10:53:21.423000,-2.8681302000000004,-0.09815800000000001,6.9333100000000005,-0.4452555,-0.39073959999999996,-0.5761371999999999
23690,10:53:21.428000,-2.983047,-0.8283582,6.8590932,-0.4452555,-0.39073959999999996,-0.5761371999999999
23691,10:53:21.439000,-2.8992536,-1.1874731,7.1822957999999995,-0.6651669,-0.3540877,-0.39776469999999997
23692,10:53:21.448000,-2.7556078,-1.2856309,7.8023682,-0.6651669,-0.3540877,-0.39776469999999997
23693,10:53:21.457000,-3.3301911,-0.5674013000000001,8.0441723,-0.6285149,-0.32598790000000005,-0.3317913
23694,10:53:21.470000,-3.6438181000000003,0.7134414000000001,8.573267900000001,-0.2729917,0.29342890000000005,-0.27925690000000003
23695,10:53:21.488000,-3.9143515,2.3510051,8.76719,-0.2729917,0.29342890000000005,-0.27925690000000003
23696,10:53:21.496000,-3.9047748999999996,2.5640798,8.9659004,-0.1984662,0.36306740000000004,-0.5407071
23697,10:53:21.507000,-4.1896729,2.6430849999999997,8.822254199999998,-0.6334019000000001,0.20424260000000002,-0.43686
23698,10:53:21.516000,-4.4314770999999995,2.7939133999999997,8.8677416,-0.6334019000000001,0.20424260000000002,-0.43686
23699,10:53:21.525000,-4.0747561,2.3773401,9.4447203,-0.8398741,0.19691229999999998,-0.30857840000000003
23700,10:53:21.538000,-3.8712578,1.2569019,8.9659004,-1.4238608,-0.17571520000000002,-0.306135
23701,10:53:21.544000,-4.2854371,1.431671,8.9682941,-1.4238608,-0.17571520000000002,-0.306135
23702,10:53:21.555000,-4.0843324999999995,0.5219135,8.980263699999998,-1.5606946000000002,-0.131733,-0.1509753
23703,10:53:21.564000,-3.8425286,-0.1867397,8.815072099999998,-1.6767588,-0.3174358,-0.0959975
23704,10:53:21.574000,-3.5887538999999995,-0.5913424,8.8054953,-1.6828674,-0.5385689,-0.13875810000000002
23705,10:53:21.586000,-3.5935422999999993,-0.5051548,8.3530102,-1.6339983,-0.5825511,-0.09966269999999999
23706,10:53:21.593000,-3.2200627,-1.139591,8.0681133,-1.6339983,-0.5825511,-0.09966269999999999
23707,10:53:21.603000,-3.102752,-1.4292768999999999,7.771244500000001,-1.648659,-0.7144979,-0.1155452
23708,10:53:21.613000,-3.0261407000000005,-1.5992579,7.452829400000001,-1.653546,-0.7438194,-0.0691195
23709,10:53:21.621000,-2.789125,-1.7859976000000002,7.471982000000001,-1.6706501,-0.8122362,0.0469448
23710,10:53:21.634000,-2.4778922000000003,-2.157083,7.249331,-1.6743153000000002,-0.8940921000000001,0.1153617
23711,10:53:21.641000,-2.3390346,-2.5545032,7.2086315,-1.6682066999999998,-0.9918305000000001,0.1129182
23712,10:53:21.653000,-2.3725517000000003,-3.1242987999999996,7.0099211,-1.4568475,-0.9185267,0.2668561
23713,10:53:21.661000,-2.8705244,-2.5808383999999998,7.081744199999999,-1.4568475,-0.9185267,0.2668561
23714,10:53:21.671000,-2.7939133999999997,-2.5952029,7.1200494999999995,-1.1587455,-0.7499281,0.44400690000000004
23715,10:53:21.680000,-2.4683158,-2.7484252000000002,7.3834004,-0.9571601000000001,-0.8207884,0.4305679
23716,10:53:21.690000,-2.3486105999999998,-2.5760503,7.6419630000000005,-0.714036,-1.0321475,0.42445920000000004
23717,10:53:21.702000,-2.082866,-2.5329566000000003,8.0322018,-0.6407322,-1.1347728000000001,0.49898469999999995
23718,10:53:21.709000,-1.9368258999999999,-2.5784442000000003,8.5277796,-0.5833109999999999,-1.2056332,0.5160889
23719,10:53:21.722000,-1.6974159,-2.5760503,8.8916826,-0.5649850000000001,-1.2325113,0.5075367999999999
23720,10:53:21.729000,-1.3574538999999999,-2.7388489,9.5835772,-0.5649850000000001,-1.2325113,0.5075367999999999
23721,10:53:21.738000,-1.1252263999999998,-3.0596582999999997,9.8301687,-0.5991935,-1.2141852,0.5136455
23722,10:53:21.749000,-0.8068113,-3.6150888999999995,10.3113832,-0.6639451,-1.1726465,0.5258628000000001
23723,10:53:21.757000,-0.6751359,-3.8568931000000006,10.2611074,-0.7763441999999999,-0.9551786,0.5735102
23724,10:53:21.769000,-0.4836079000000001,-4.3405008,10.3185663,-0.7983353,-0.8012406999999999,0.5893927
23725,10:53:21.777000,-0.4788198,-4.7690444,10.062397,-0.7983353,-0.8012406999999999,0.5893927
23726,10:53:21.788000,-0.6272539,-4.9079027,9.9762087,-0.6969316999999999,-0.4725955,0.687131
23727,10:53:21.796000,-0.8139936,-5.080277400000001,9.7990456,-0.6969316999999999,-0.4725955,0.687131
23728,10:53:21.806000,-1.0534035,-5.065913200000001,9.5811834,-0.5820892,-0.33209659999999996,0.7176743
23729,10:53:21.818000,-1.1252263999999998,-5.1760416,9.4902067,-0.36339970000000005,-0.0877507,0.7213395
23730,10:53:21.825000,-1.2688723999999998,-5.245470500000001,9.533301400000001,-0.36339970000000005,-0.0877507,0.7213395
23731,10:53:21.835000,-1.2305667,-5.2119532,9.447114,-0.1703664,0.0466395,0.7482175
23732,10:53:21.845000,-1.1731083,-5.2215295,9.5093603,-0.1703664,0.0466395,0.7482175
23733,10:53:21.854000,-1.2928133999999998,-5.2981405,9.811017,-0.08240189999999999,0.12849539999999998,0.737222
23734,10:53:21.866000,-1.7093865000000001,-5.3412347,10.136613800000001,0.031219,0.27632470000000003,0.7042353
23735,10:53:21.873000,-2.0158311999999996,-5.5064268,10.459816900000002,0.1448398,0.4950143,0.6480357
23736,10:53:21.885000,-2.5185918999999997,-5.633314599999999,9.8780508,0.2780083,0.7857859,0.4159071
23737,10:53:21.893000,-2.5832324,-5.4753041,9.980998,0.2780083,0.7857859,0.4159071
23738,10:53:21.904000,-3.7587349000000003,-4.0077214,8.0417776,0.5138020999999999,0.6941562,0.16423089999999999
23739,10:53:21.913000,-1.4651883999999997,-4.5104818,9.820592900000001,0.5138020999999999,0.6941562,0.16423089999999999
23740,10:53:21.922000,-0.8379346,-4.436265000000001,8.5445375,0.5724451999999999,-0.4420522,-0.1094366
23741,10:53:21.934000,-0.5841601,-4.2519193,8.2668228,0.24868679999999999,-0.3846309,-0.2682614
23742,10:53:21.941000,-1.1491673999999998,-3.9263220000000003,7.6515393,0.24868679999999999,-0.3846309,-0.2682614
23743,10:53:21.951000,-4.400353400000001,-3.7323998999999994,0.7589293,0.06664910000000002,0.8334333,-0.7190795999999999
23744,10:53:21.960000,-4.1968551,-2.3390346,4.8073505999999995,0.06664910000000002,0.8334333,-0.7190795999999999
23745,10:53:21.971000,-2.3964927000000005,-2.7843367999999997,4.8935379999999995,-0.2009096,1.2475996,-1.5877291
23746,10:53:21.984000,-1.3047838,-2.7843367999999997,4.747498,-0.1276059,0.22745549999999998,-1.8748356
23747,10:53:21.990000,-1.1371969,-2.0972304,4.3021955,-0.1276059,0.22745549999999998,-1.8748356
23748,10:53:22.001000,-1.6064403,-2.0086489,4.0292683,-0.3853908,0.2360076,-1.3983611
23749,10:53:22.019000,-2.5545032,-3.2823095,3.2128806,-0.8301003,0.2628857,-0.9279953000000001
23750,10:53:22.031000,-2.5497153,-3.44032,3.1123283,-1.7366235,0.1321606,-0.0324676
23751,10:53:22.038000,-1.9559786,-3.7659172999999995,3.3397677000000003,-1.8184793999999997,-0.0181121,0.2644127
23752,10:53:22.050000,-1.7045983,-3.8904104,3.8114052000000003,-1.6938630000000001,-0.39073959999999996,0.4867674
23753,10:53:22.058000,-1.5585582,-4.172914,4.290225,-1.6938630000000001,-0.39073959999999996,0.4867674
23754,10:53:22.069000,-1.4963118,-4.316559799999999,5.0707011,-1.3139051000000002,-0.2441321,0.3511555
23755,10:53:22.077000,-1.4795530000000001,-4.3668360999999996,5.4154515,-1.3139051000000002,-0.2441321,0.3511555
23756,10:53:22.087000,-1.3478776000000001,-4.2638898,5.8655419,-1.0829983,-0.13906329999999997,0.226539
23757,10:53:22.100000,-0.8858166,-4.2231898,6.1456513,-0.5405504,0.07107410000000002,0.1312442
23758,10:53:22.107000,-0.5889483,-3.6581831,6.3970318,-0.1862489,0.22379029999999997,0.1654526
23759,10:53:22.120000,-0.2633509,-2.7556078,6.4832196,0.1704961,0.3899455,0.2033262
23760,10:53:22.125000,-0.038305599999999995,-1.9128848000000003,6.763329,0.446607,0.5035664000000001,0.16300910000000002
23761,10:53:22.134000,0.30165640000000005,-1.7285392,7.2804546000000006,0.446607,0.5035664000000001,0.16300910000000002
23762,10:53:22.144000,-0.0335174,-1.6543223000000002,7.2110256999999995,0.6017666,0.6538391,0.0396144
23763,10:53:22.153000,-1.0246743,-1.4651883999999997,7.4767703999999995,0.6335316,0.7515774000000001,-0.0459066
23764,10:53:22.167000,-1.8410618000000003,-1.8530324,7.7377272,0.3549773,0.9739322,-0.0165851
23765,10:53:22.174000,-3.3254032,-1.721357,7.6228104000000005,0.3549773,0.9739322,-0.0165851
23766,10:53:22.184000,-4.0244799,-2.135536,7.536623,0.0483232,0.8737504,0.1605656
23767,10:53:22.194000,-4.213614,-1.3526658,8.6810017,0.0483232,0.8737504,0.1605656
23768,10:53:22.203000,-3.9502629999999996,-1.9942843000000001,8.9563227,-0.3365216,0.26899429999999996,0.36459450000000004
23769,10:53:22.215000,-3.2296392999999997,-3.1410575,8.6977606,-1.3200138000000001,-0.0767551,0.0102929
23770,10:53:22.222000,-2.4922566,-4.318954,8.4320164,-1.3200138000000001,-0.0767551,0.0102929
23771,10:53:22.232000,-2.0445604,-5.362781,8.7049427,-2.1385725,0.3044245,-0.9304388000000001
23772,10:53:22.242000,-2.2384822,-6.452096,8.707337400000002,-2.1385725,0.3044245,-0.9304388000000001
23773,10:53:22.251000,-4.0508150999999994,-9.7080698,6.085799199999999,-2.5075347000000003,0.3765065,-0.929217
23774,10:53:22.263000,-5.1281595,-11.398304,8.8366184,-1.784271,0.1419345,-0.026358999999999997
23775,10:53:22.271000,-5.2885642,-11.271416699999998,7.967560300000001,-1.328566,-0.1659414,0.2338694
23776,10:53:22.281000,-4.3141661,-11.0008841,7.948408099999999,-0.7995571,-0.4909214,-0.0507935
23777,10:53:22.290000,-3.3445561,-10.601069500000001,8.3147049,-0.7995571,-0.4909214,-0.0507935
23778,10:53:22.299000,-2.8681302000000004,-9.8636866,8.688183800000001,0.0177799,-0.6240899999999999,-0.32446090000000005
23779,10:53:22.309000,-2.7723663,-8.8581648,9.0449047,0.7019484,-0.6619635,-0.2670397
23780,10:53:22.319000,-2.7603958,-7.797579300000001,9.1598225,1.2236268999999997,-0.6656287,-0.004367800000000001
23781,10:53:22.332000,-2.6311145000000002,-6.909369,9.0520868,2.0104208,-0.7120544,0.2045479
23782,10:53:22.339000,-2.3366406000000004,-6.095375499999999,9.212492,2.0104208,-0.7120544,0.2045479
23783,10:53:22.349000,-2.1092009999999997,-5.4633335999999995,9.3250151,2.342731,-0.813458,0.1898872
23784,10:53:22.362000,-1.9176731,-4.7905917,9.1550341,2.8705182000000002,-1.2080765,0.2986211
23785,10:53:22.368000,-1.1348027,-4.7091918,10.048031800000002,3.1344117999999996,-1.4719701,0.3682597
23786,10:53:22.380000,-1.2592959,-3.8928044,9.1382751,3.463057,-1.4658616000000002,0.45133720000000005
23787,10:53:22.388000,-1.5489819,-2.8681302000000004,9.1382751,3.463057,-1.4658616000000002,0.45133720000000005
23788,10:53:22.397000,-0.9265162,-2.2624232999999996,9.4902067,3.8002542999999998,-1.3253627000000001,0.6003881999999999
23789,10:53:22.407000,-0.14604,-1.7979681,9.9067812,4.1802125,-1.6417906000000002,0.6358184
23790,10:53:22.416000,0.3830558,-1.3383013000000001,10.194071800000001,4.4685407,-2.0303006000000003,0.6126055
23791,10:53:22.428000,0.8044171999999999,-0.7110473,10.467,4.6957822,-2.176908,0.6492574000000001
23792,10:53:22.436000,0.6918946,0.0526702,10.3592653,4.8949242,-2.1378126,0.7445523000000001
23793,10:53:22.447000,0.6751359,0.4309378,10.3688421,5.1710348,-2.2550988,0.6626964
23794,10:53:22.455000,0.5290958,0.8403287,10.2371664,5.1710348,-2.2550988,0.6626964
23795,10:53:22.465000,0.5027608,1.1850789,10.1533728,5.1979132,-2.2819769,0.5612929
23796,10:53:22.475000,0.7900524999999999,1.3526658,10.285047500000001,5.1246089999999995,-2.322294,0.4721067
23797,10:53:22.484000,1.1252263999999998,1.3167541999999999,10.694438900000002,4.981667,-2.4310278999999997,0.4134637
23798,10:53:22.496000,1.211414,1.8506383999999998,11.237899800000001,4.909585,-2.3638327,0.5185323000000001
23799,10:53:22.504000,1.2521136,2.8226426,11.5994081,4.909585,-2.3638327,0.5185323000000001
23800,10:53:22.514000,1.5082823,4.1513672,11.2211409,5.2626648000000005,-2.1695778,0.5564060000000001
23801,10:53:22.532000,2.1618712,8.1231766,9.195733099999998,5.2626648000000005,-2.1695778,0.5564060000000001
23802,10:53:22.545000,1.7716331000000003,9.1598225,7.8694024,5.635292099999999,-1.9985356,-0.0373545
23803,10:53:22.552000,2.4563452999999997,10.048031800000002,7.421706200000001,5.635292099999999,-1.9985356,-0.0373545
23804,10:53:22.564000,2.2432703999999997,11.125376699999999,6.7441759,5.5277801,-2.3907107999999995,0.0897053
23805,10:53:22.572000,1.9224613000000002,11.1588936,5.6093736,5.5277801,-2.3907107999999995,0.0897053
23806,10:53:22.581000,1.817121,10.4191179,3.7228234,4.6029305,-1.9973136999999999,0.20821309999999998
23807,10:53:22.594000,1.9296436000000001,9.3154383,1.6351695,4.6029305,-1.9973136999999999,0.20821309999999998
23808,10:53:22.601000,2.0062547,8.633119599999999,-0.0790053,3.5730126,-2.0131962,-0.0507935
23809,10:53:22.612000,2.2935464,7.7927914000000005,-0.6128892,3.1502943,-2.0339656,-0.31957399999999997
23810,10:53:22.620000,2.8058836,6.7896638,-0.42854369999999997,3.1502943,-2.0339656,-0.31957399999999997
23811,10:53:22.630000,3.5935422999999993,5.5926147,-0.0406997,2.1985669,-2.1732428,-1.0562768
23812,10:53:22.639000,4.1800966,4.8624144,0.7230178,2.1985669,-2.1732428,-1.0562768
23813,10:53:22.648000,4.383595,4.7738328,0.9313045,1.8491523,-2.1720212,-1.3226138
23814,10:53:22.661000,4.3333187,5.2622290000000005,0.0694289,1.5095116000000002,-1.5599346,-1.642707
23815,10:53:22.669000,4.4530234,5.8009014,-1.1467732,1.5095116000000002,-1.5599346,-1.642707
23816,10:53:22.679000,5.0707011,6.140863400000001,-2.1115949,1.5424982,-1.0968993,-1.9908998
23817,10:53:22.687000,5.9110298,6.679535400000001,-3.3421616999999997,1.5424982,-1.0968993,-1.9908998
23818,10:53:22.697000,6.528707499999999,7.6922393,-4.4697824,1.6414583999999999,-1.0700212,-1.9114875
23819,10:53:22.708000,6.4209727999999995,8.7288837,-5.4010868,1.7660748,-1.0101564,-1.5730684
23820,10:53:22.716000,5.168858999999999,10.1007032,-6.2342329,1.985986,-0.8647706000000001,-1.0367292
23821,10:53:22.729000,3.6486065,13.6774864,-6.092981299999999,3.1869462000000004,-0.7303804,0.6859093
23822,10:53:22.737000,3.5432663,15.949485800000001,-6.8734574,3.1869462000000004,-0.7303804,0.6859093
23823,10:53:22.746000,4.383595,17.8456116,-7.5821104,3.9431964999999995,-0.7523715,1.5191288
23824,10:53:22.760000,5.4202394,19.2365837,-7.550987700000001,4.2498507000000005,-0.6265334,1.7573661
23825,10:53:22.765000,5.9828529,20.7017727,-8.467927,4.2498507000000005,-0.6265334,1.7573661
23826,10:53:22.777000,6.4042139,21.630682,-5.9636998,3.5534649,-0.052320500000000006,1.522794
23827,10:53:22.784000,7.3403072,21.4726715,-5.314899,3.5534649,-0.052320500000000006,1.522794
23828,10:53:22.794000,8.606784800000002,19.5214825,-4.917479,-0.2632178,0.3532937,0.4721067
23829,10:53:22.804000,9.516543400000002,17.421855899999997,-5.295746299999999,-0.2632178,0.3532937,0.4721067
23830,10:53:22.814000,10.364052800000001,15.128310199999998,-5.427422,-3.4421577000000005,0.26777259999999997,0.7579913
23831,10:53:22.826000,10.5890989,13.0789614,-5.4609389,-3.9210756,0.4620275,0.750661
23832,10:53:22.832000,10.3113832,11.802907000000001,-4.6373695999999995,-3.7952377999999998,0.9507193000000002,0.5539625
23833,10:53:22.843000,9.593154,11.462945,-3.6126949999999995,-3.4507101000000002,1.4235287,0.3022863
23834,10:53:22.852000,8.520597500000001,11.3767567,-3.4211669000000002,-3.4507101000000002,1.4235287,0.3022863
23835,10:53:22.862000,7.3522773,11.410275500000001,-3.8928044,-3.2222466,1.8059299,0.13979629999999998
23836,10:53:22.875000,6.705870599999999,11.486886,-4.1489735,-3.1574948,2.2066572,0.2815169
23837,10:53:22.881000,6.3778790999999995,11.6832018,-4.010115600000001,-3.1574948,2.2066572,0.2815169
23838,10:53:22.893000,6.1169224,11.929794300000001,-3.5265076,-3.3615236000000004,2.4412291,0.1520135
23839,10:53:22.901000,5.8511777,12.0662584,-2.9399533,-3.3615236000000004,2.4412291,0.1520135
23840,10:53:22.911000,5.5016389000000006,11.9848576,-2.2648175,-3.9613926,2.7857568,-0.0691195
23841,10:53:22.920000,5.2406821,11.9034586,-1.3550598999999999,-3.9613926,2.7857568,-0.0691195
23842,10:53:22.930000,5.33884,11.3025398,-0.33756790000000003,-4.487958,2.9140384,-0.14486670000000001
23843,10:53:22.942000,5.8966651,10.4622116,1.0150979,-5.6864748,3.1437237000000002,-0.40509509999999993
23844,10:53:22.949000,6.4832196,9.1454573,1.9703432,-5.6864748,3.1437237000000002,-0.40509509999999993
23845,10:53:22.960000,6.428154900000001,7.936437599999999,2.2480588,-6.734718300000001,3.4772557999999996,-0.4857292
23846,10:53:22.968000,5.6644373,6.2701445,3.2248509,-6.734718300000001,3.4772557999999996,-0.4857292
23847,10:53:22.978000,4.1465788,4.8552327,4.354865599999999,-7.018159900000001,3.6763976,-0.4319731
23848,10:53:22.993000,2.1403244,3.6653652,6.1648045,-7.0340424,3.9244087,-0.26093099999999997
23849,10:53:22.997000,0.13406949999999998,2.0493486,8.491867999999998,-7.0340424,3.9244087,-0.26093099999999997
23850,10:53:23.007000,-1.5417996999999999,0.5003666,9.619488699999998,-6.8959866,3.891422,-0.3427869
23851,10:53:23.017000,-2.3174875,-0.9552454,10.0983086,-6.7823658,3.7778012999999997,-0.5614765
23852,10:53:23.026000,-2.4587395,-2.6502673999999997,8.707337400000002,-6.7909179,3.6153111000000004,-0.8595784
23853,10:53:23.040000,-1.7668449000000002,-4.512876,7.594080900000001,-6.768927099999999,3.4515994,-1.2053279
23854,10:53:23.046000,-1.4077301000000002,-6.4616723,6.171986599999999,-6.5392418,3.2304664,-1.5193123
23855,10:53:23.059000,-1.2856309,-8.2285175,4.9893022,-5.21,2.956799,-1.7331150000000002
23856,10:53:23.066000,-1.6950218999999997,-8.9515352,4.7427095999999995,-5.21,2.956799,-1.7331150000000002
23857,10:53:23.075000,-2.5257742000000003,-8.4942617,6.2797208,-3.2234682999999995,2.546298,-1.6781370999999998
23858,10:53:23.085000,-3.5145371,-7.668298700000001,8.4655333,-3.2234682999999995,2.546298,-1.6781370999999998
23859,10:53:23.094000,-4.625399099999999,-6.8710637000000006,10.297019,-2.4220137999999998,2.3324952000000003,-1.6756936000000002
23860,10:53:23.107000,-5.4657273,-6.1264987,10.806962,-2.3181667,1.9928546000000003,-1.5400817
23861,10:53:23.114000,-6.136075,-5.7123194,10.7159863,-2.3181667,1.9928546000000003,-1.5400817
23862,10:53:23.124000,-6.5095544,-6.516737,9.9067812,-2.981566,1.7900473999999997,-1.4203522
23863,10:53:23.133000,-6.6364417,-8.2668228,7.905314,-2.981566,1.7900473999999997,-1.4203522
23864,10:53:23.151000,-5.8823004,-11.1588936,6.602924300000001,-3.1660471,1.6373312,-1.4557824
23865,10:53:23.162000,-5.3268695,-11.146924,7.5078936,-2.3328276000000003,1.0631184999999999,-1.5058733
23866,10:53:23.173000,-5.1928,-9.5021782,7.754486099999999,-0.8582001,0.6184089,-1.0306206
23867,10:53:23.182000,-4.8312917,-8.5445375,8.3673754,-0.8582001,0.6184089,-1.0306206
23868,10:53:23.191000,-4.6565218,-7.400158900000001,8.233305900000001,-0.42570779999999997,0.514562,-0.7447359
23869,10:53:23.205000,-4.555970200000001,-6.306056,8.046566,-0.2070183,0.32275040000000005,-0.1986228
23870,10:53:23.210000,-4.4314770999999995,-5.2239237,8.2021828,-0.2070183,0.32275040000000005,-0.1986228
23871,10:53:23.226000,-4.1202440000000005,-4.2543135,8.5517206,-0.136158,0.12849539999999998,0.040836199999999996
23872,10:53:23.231000,-3.7084589,-3.3469501000000004,8.8246479,-0.1483752,0.023426699999999998,0.10803130000000001
23873,10:53:23.244000,-3.246398,-2.7651839,9.076027900000001,-0.2473353,-0.0425467,0.16423089999999999
23874,10:53:23.250000,-2.8848889,-2.6382967999999996,8.999417300000001,-0.37561690000000003,-0.0608726,0.18011329999999998
23875,10:53:23.259000,-2.5185918999999997,-2.5832324,8.781554199999999,-0.37561690000000003,-0.0608726,0.18011329999999998
23876,10:53:23.269000,-2.0996243999999997,-2.66942,8.556509,-0.5112289000000001,-0.0559857,0.1520135
23877,10:53:23.278000,-1.6950218999999997,-2.6335083999999997,8.989841499999999,-0.6016369,-0.0535423,0.0970357
23878,10:53:23.289000,-1.4580061000000002,-2.4539514,8.8007069,-0.7384706,-0.0046731,-0.0202503
23879,10:53:23.298000,-1.3406953000000001,-2.3557932,8.819860499999999,-0.7384706,-0.0046731,-0.0202503
23880,10:53:23.308000,-1.3359071000000002,-2.4300102999999997,8.9347773,-0.7739007,0.05396990000000001,-0.1033279
23881,10:53:23.322000,-1.6519281000000003,-2.1906002,8.803100599999999,-0.7677921,0.1761429,-0.1802969
23882,10:53:23.327000,-1.9392200000000002,-1.8147268,8.7336721,-0.8374306999999999,0.1639256,-0.2279443
23883,10:53:23.339000,-1.9823137999999998,-1.7548743000000002,8.688183800000001,-1.0072510000000001,0.1052825,-0.2841439
23884,10:53:23.347000,-1.9847078000000002,-1.9655551,8.8773184,-1.0072510000000001,0.1052825,-0.2841439
23885,10:53:23.356000,-2.4587395,-2.3222756,8.7288837,-1.6058985000000001,0.0429744,-0.1778534
23886,10:53:23.366000,-2.983047,-3.2009101,8.776765800000002,-1.6058985000000001,0.0429744,-0.1778534
23887,10:53:23.376000,-3.4068023999999997,-4.625399099999999,8.695366900000002,-1.9565348999999999,0.0796262,-0.1521971
23888,10:53:23.388000,-3.7874641000000002,-6.1671987,8.2141533,-2.393914,0.107726,-0.2413833
23889,10:53:23.394000,-4.0172977,-7.4169178,7.8622203,-2.393914,0.107726,-0.2413833
23890,10:53:23.405000,-4.0986972,-8.305128100000001,7.9101024,-1.7635016,-0.0376598,-0.1265408
23891,10:53:23.413000,-4.1274261,-8.4870796,8.1543007,-1.7635016,-0.0376598,-0.1265408
