,time,ax,ay,az,wx,wy,wz
12198,13:40:26.005000,-1.0749503,-7.5533814,5.6740141,0.0703143,0.0368657,-0.0691195
12199,13:40:26.021000,-1.0869209,-7.589293,5.685984599999999,0.0226669,0.0332005,-0.0520153
12200,13:40:26.026000,-1.1348027,-7.6204165999999995,5.669226200000001,-0.0127633,0.0319788,-0.04101969999999999
12201,13:40:26.038000,-1.1707143,-7.656328200000001,5.6045852,-0.0127633,0.0319788,-0.04101969999999999
12202,13:40:26.045000,-1.1802906000000002,-7.7329387999999994,5.6117672999999995,-0.072628,0.0246484,-0.0288024
12203,13:40:26.053000,-0.9767923000000001,-7.6252046,5.9684882,-0.072628,0.0246484,-0.0288024
12204,13:40:26.067000,-1.3574538999999999,-8.048959700000001,5.3771458,-0.221679,0.0160963,0.0078495
12205,13:40:26.072000,-1.2928133999999998,-7.9101024,5.4106631,-0.072628,0.017318,-0.0507935
12206,13:40:26.083000,-1.0270684,-7.895737599999999,5.422633599999999,-0.072628,0.017318,-0.0507935
12207,13:40:26.091000,-1.2066257,-8.0752954,5.3268695,-0.0310892,-0.0120035,-0.0349111
12208,13:40:26.101000,-1.2018377,-7.8574319,5.5327621,-0.0408631,-0.0217773,-0.0422414
12209,13:40:26.113000,-1.3239366000000001,-7.608446099999999,5.2837758,-0.0213154,-0.0217773,-0.0349111
12210,13:40:26.121000,-1.2066257,-8.1112061,5.5758562000000005,-0.0359761,-0.054764,-0.0422414
12211,13:40:26.133000,-1.1491673999999998,-7.7808208,5.5327621,0.026332099999999997,-0.08164199999999999,-0.0630108
12212,13:40:26.141000,-1.0749503,-7.9867134,5.5686735999999994,0.026332099999999997,-0.08164199999999999,-0.0630108
12213,13:40:26.151000,-1.1108619,-7.9795308,5.539944599999999,0.0483232,-0.11951569999999999,-0.08011510000000001
12214,13:40:26.162000,-1.0366447,-7.819126600000001,5.5854325,0.0483232,-0.11951569999999999,-0.08011510000000001
12215,13:40:26.170000,-1.067768,-7.6778746,5.5160035999999995,0.11429660000000001,-0.1427285,-0.09966269999999999
12216,13:40:26.184000,-1.1587437,-7.6156277999999995,5.1880121,0.11796179999999999,-0.1500589,-0.1094366
12217,13:40:26.189000,-1.1204382,-7.8406734,5.3579931,0.11796179999999999,-0.1500589,-0.1094366
12218,13:40:26.201000,-0.775688,-6.5885601,5.8392072,0.3549773,-0.190376,-0.2193922
12219,13:40:26.209000,-0.33517379999999997,-8.5708742,5.9589119,0.38307709999999995,-0.1989281,-0.44785559999999996
12220,13:40:26.219000,-1.1922611,-7.5198641,5.5183973,0.2474651,-0.1500589,-0.2682614
12221,13:40:26.231000,-0.8475109000000001,-7.7042098,5.8942709,0.2474651,-0.1500589,-0.2682614
12222,13:40:26.238000,-0.5506426999999999,-7.4456468,5.9852471,0.5748886,-0.21481060000000002,-0.27070479999999997
12223,13:40:26.249000,-0.5434604000000001,-7.0530152,5.9230003,0.5211325,-0.203815,-0.31468709999999994
12224,13:40:26.256000,-0.4381201,-6.8878222000000004,6.428154900000001,0.3977378,-0.18548900000000001,-0.28292209999999995
12225,13:40:26.267000,0.3495384,-6.6364417,7.7161802999999995,0.29266909999999996,-0.1818239,-0.25604410000000005
12226,13:40:26.277000,0.217863,-7.5845050999999994,7.165537400000001,0.29266909999999996,-0.1818239,-0.25604410000000005
12227,13:40:26.286000,-0.055064300000000004,-8.4894743,6.3563317999999995,-0.5894196,-0.1634979,-0.039798
12228,13:40:26.298000,-0.2729273,-8.580450099999998,5.8224478,-0.6040803000000001,-0.10607660000000001,0.0273971
12229,13:40:26.305000,-0.35432659999999994,-8.2452765,5.6381025000000005,-0.6040803000000001,-0.10607660000000001,0.0273971
12230,13:40:26.317000,-0.411785,-7.888555499999999,5.7817483,-0.1569273,-0.0107817,-0.0141417
12231,13:40:26.328000,-0.42854369999999997,-7.649145599999999,6.0115819,-0.0384196,0.0209832,-0.0288024
12232,13:40:26.335000,-0.43333190000000005,-7.653933500000001,6.1552280999999995,-0.028645799999999996,0.0441961,-0.025137200000000002
12233,13:40:26.348000,-0.43333190000000005,-7.8550382,6.2198687,-0.07751489999999998,0.060078599999999996,-0.0116982
12234,13:40:26.353000,-0.387844,-8.051354400000001,6.2198687,-0.07751489999999998,0.060078599999999996,-0.0116982
12235,13:40:26.367000,-0.48600200000000005,-8.0298071,6.239021299999999,-0.13860139999999999,0.0771828,0.0225102
12236,13:40:26.373000,-0.4931844,-7.936437599999999,6.322814900000001,-0.13860139999999999,0.0771828,0.0225102
12237,13:40:26.382000,-0.45727290000000004,-8.020231200000001,6.2940855,-0.1447101,0.0845132,0.0322841
12238,13:40:26.396000,-0.4692433,-8.0441723,6.1983213,-0.2571092,0.0784045,0.0701577
12239,13:40:26.401000,-0.43333190000000005,-8.0752954,6.025946599999999,-0.3145305,0.0820697,0.0884836
12240,13:40:26.414000,-0.5626131999999999,-8.1327534,5.9517293,-0.3475172,0.094287,0.10192260000000002
12241,13:40:26.421000,-0.6272539,-8.1543007,5.7937188,-0.3475172,0.094287,0.10192260000000002
12242,13:40:26.433000,-0.6655594,-8.1830292,5.7913251,-0.32674770000000003,0.1382692,0.11413989999999999
12243,13:40:26.444000,-0.6559831,-8.1614828,5.7171078,-0.266883,0.15781689999999998,0.1068096
12244,13:40:26.450000,-0.6511949,-8.127965,5.6596494,-0.18380539999999998,0.17736459999999998,0.09337050000000001
12245,13:40:26.463000,-0.6535890000000001,-7.974742900000001,5.688378299999999,-0.09706260000000001,0.1895819,0.0762663
12246,13:40:26.469000,-0.6416184,-7.8694024,5.7123194,-0.09706260000000001,0.1895819,0.0762663
12247,13:40:26.483000,-0.7134414000000001,-7.8646145,5.6764078,-0.009098100000000001,0.1993557,0.0469448
12248,13:40:26.489000,-0.7685057,-7.8646145,5.602191,-0.011541599999999999,0.20057750000000002,0.0396144
12249,13:40:26.499000,-0.7278060000000001,-7.8861612999999995,5.5638857,-0.026202299999999998,0.198134,0.035949300000000003
12250,13:40:26.512000,-0.7589293,-7.8694024,5.5614915,-0.0469717,0.1932471,0.0335058
12251,13:40:26.519000,-0.7469588,-7.876585,5.5112157,-0.0469717,0.1932471,0.0335058
12252,13:40:26.531000,-0.8020231,-7.8574319,5.4465747,-0.0811801,0.1736994,0.029840600000000002
12253,13:40:26.538000,-0.7972349,-7.8454614000000005,5.3986925999999995,-0.0811801,0.1736994,0.029840600000000002
12254,13:40:26.549000,-0.8738461,-7.7951856,5.3220816,-0.0885105,0.1517083,0.0212885
12255,13:40:26.557000,-0.8642696,-7.809549799999999,5.2382879,-0.0885105,0.1517083,0.0212885
12256,13:40:26.566000,-0.9001811,-7.7856088,5.2215295,-0.0750715,0.12116500000000001,-0.004367800000000001
12257,13:40:26.581000,-0.8403287,-7.797579300000001,5.2071648,-0.056745500000000004,0.10650430000000001,-0.019028599999999996
12258,13:40:26.586000,-0.9528513000000001,-7.7281508,5.2287116,-0.037197900000000006,0.0955087,-0.0349111
12259,13:40:26.596000,-0.9528513000000001,-7.708998200000001,5.2909579,-0.037197900000000006,0.0955087,-0.0349111
12260,13:40:26.605000,-1.0605857,-7.6706924,5.199982599999999,-0.0310892,0.0832914,-0.0507935
12261,13:40:26.614000,-1.0869209,-7.766456599999999,5.2023764,-0.0433065,0.0698524,-0.066676
12262,13:40:26.625000,-1.0462211,-7.850249799999999,5.2215295,-0.06651939999999999,0.0564134,-0.08011510000000001
12263,13:40:26.633000,-1.0246743,-7.8694024,5.2239237,-0.08240189999999999,0.0441961,-0.0959975
12264,13:40:26.643000,-0.9959450000000001,-7.7856088,5.2741995,-0.08606710000000001,0.0295353,-0.10821480000000001
12265,13:40:26.653000,-0.9576395000000001,-7.7473035,5.2191353,-0.0836236,0.017318,-0.1131017
12266,13:40:26.664000,-0.9145458000000001,-7.713786099999999,5.214346900000001,-0.0982843,-0.0083383,-0.11676689999999999
12267,13:40:26.675000,-0.9336985000000001,-7.778427099999999,5.2071648,-0.1092799,-0.0217773,-0.1240973
12268,13:40:26.682000,-0.8977870000000001,-7.8670086999999995,5.199982599999999,-0.11416680000000001,-0.0339946,-0.1363146
12269,13:40:26.692000,-0.7876585,-7.926860799999999,5.2215295,-0.11416680000000001,-0.0339946,-0.1363146
12270,13:40:26.701000,-0.7230178,-7.9172845,5.2406821,-0.11172339999999999,-0.0535423,-0.1412015
12271,13:40:26.714000,-0.775688,-7.967560300000001,5.3292642,-0.1214972,-0.0572075,-0.1412015
12272,13:40:26.723000,-0.8139936,-8.0010777,5.317293599999999,-0.13860139999999999,-0.0596509,-0.13875810000000002
12273,13:40:26.731000,-0.7565352,-8.0154428,5.3196874,-0.149597,-0.0657596,-0.13875810000000002
12274,13:40:26.743000,-0.7565352,-8.0800838,5.3579931,-0.1508187,-0.07186820000000001,-0.14242320000000003
12275,13:40:26.750000,-0.6655594,-8.1112061,5.365175700000001,-0.1508187,-0.07186820000000001,-0.14242320000000003
12276,13:40:26.763000,-0.6727418000000001,-8.1399355,5.365175700000001,-0.136158,-0.0767551,-0.1485319
12277,13:40:26.769000,-0.6368303000000001,-8.1064186,5.3939047,-0.136158,-0.0767551,-0.1485319
12278,13:40:26.780000,-0.581766,-8.1590881,5.4322099999999995,-0.1349362,-0.06942469999999999,-0.1412015
12279,13:40:26.792000,-0.6152834,-8.168664900000001,5.391510500000001,-0.1349362,-0.06942469999999999,-0.1412015
12280,13:40:26.799000,-0.5913424,-8.1806355,5.3962984,-0.14226660000000002,-0.062094399999999994,-0.1314277
12281,13:40:26.810000,-0.5745836999999999,-8.1327534,5.384327900000001,-0.1508187,-0.0535423,-0.12043210000000001
12282,13:40:26.818000,-0.5362781,-8.216547,5.3962984,-0.1581491,-0.0462119,-0.1131017
12283,13:40:26.829000,-0.5506426999999999,-8.2093649,5.3867221,-0.16670120000000002,-0.030329400000000003,-0.1033279
12284,13:40:26.837000,-0.4836079000000001,-8.2787933,5.3460225999999995,-0.16670120000000002,-0.030329400000000003,-0.1033279
12285,13:40:26.846000,-0.45727290000000004,-8.312311200000002,5.3891163,-0.16425770000000003,-0.022999000000000002,-0.098441
12286,13:40:26.857000,-0.3758735,-8.3147049,5.4346042,-0.1447101,-0.0022296,-0.085002
12287,13:40:26.866000,-0.36869120000000005,-8.2740059,5.4920626,-0.1447101,-0.0022296,-0.085002
12288,13:40:26.877000,-0.3830558,-8.1614828,5.513609400000001,-0.1153885,0.027091900000000006,-0.0642326
12289,13:40:26.886000,-0.3806617,-8.0657187,5.5255799,-0.1153885,0.027091900000000006,-0.0642326
12290,13:40:26.897000,-0.4165732,-7.8837671,5.5614915,-0.12882760000000001,0.0649655,-0.043463199999999994
12291,13:40:26.912000,-0.44051409999999996,-7.900525999999999,5.480092,-0.1605926,0.08695660000000001,-0.0373545
12292,13:40:26.916000,-0.4907902,-7.981925,5.451363099999999,-0.1935792,0.10894780000000001,-0.033689300000000005
12293,13:40:26.927000,-0.5410663,-7.9555898,5.4346042,-0.1935792,0.10894780000000001,-0.033689300000000005
12294,13:40:26.934000,-0.5626131999999999,-7.9962902,5.3699636,-0.21557039999999997,0.13338239999999998,-0.0312459
12295,13:40:26.945000,-0.5530368,-8.0154428,5.317293599999999,-0.22778769999999998,0.17736459999999998,-0.0446849
12296,13:40:26.953000,-0.6152834,-8.0896597,5.2981405,-0.22778769999999998,0.17736459999999998,-0.0446849
12297,13:40:26.963000,-0.5985246999999999,-8.1040249,5.2335,-0.22656590000000001,0.2140165,-0.05690219999999999
12298,13:40:26.975000,-0.6128892,-8.1471176,5.199982599999999,-0.2326746,0.22623379999999998,-0.0630108
12299,13:40:26.983000,-0.6583770999999999,-8.1447239,5.125765299999999,-0.2326746,0.22623379999999998,-0.0630108
12300,13:40:26.995000,-0.6535890000000001,-8.1590881,4.9893022,-0.27910029999999997,0.23722929999999998,-0.05690219999999999
12301,13:40:27.003000,-0.6272539,-8.2620354,4.9605727,-0.27910029999999997,0.23722929999999998,-0.05690219999999999
12302,13:40:27.012000,-0.6631654,-8.3458281,4.917479,-0.3194174,0.23967280000000002,-0.047128300000000005
12303,13:40:27.024000,-0.6152834,-8.3769512,4.8504438,-0.35729099999999997,0.2384511,-0.0312459
12304,13:40:27.032000,-0.5961305,-8.3290691,4.8265028,-0.3878342,0.23967280000000002,-0.0104765
12305,13:40:27.044000,-0.5506426999999999,-8.2261238,4.910296400000001,-0.4122688,0.2531118,0.0322841
12306,13:40:27.051000,-0.49557840000000003,-8.005866099999999,4.984513300000001,-0.4122688,0.2531118,0.0322841
12307,13:40:27.061000,-0.4716375,-7.713786099999999,5.0060606,-0.45136409999999993,0.2995375,0.0884836
12308,13:40:27.073000,-0.4548787,-7.486347200000001,5.1353421,-0.5026768,0.3398546,0.12024860000000001
12309,13:40:27.080000,-0.4309378,-7.232572599999999,5.1521006,-0.5723153,0.39605409999999996,0.1471266
12310,13:40:27.091000,-0.6009188,-7.1583557,5.14013,-0.5723153,0.39605409999999996,0.1471266
12311,13:40:27.100000,-0.6990768,-7.1392026,5.1281595,-0.650506,0.4620275,0.16300910000000002
12312,13:40:27.109000,-0.6535890000000001,-7.218207400000001,5.2598348,-0.7225881,0.5316662,0.1495701
12313,13:40:27.120000,-0.6440126,-7.165537400000001,5.2670169,-0.7653486999999999,0.600083,0.1190268
12314,13:40:27.128000,-0.5674013000000001,-6.993162599999999,5.2909579,-0.7482444,0.8065553000000001,0.031062299999999998
12315,13:40:27.140000,-0.5171254,-6.8064227,4.941420099999999,-0.7396923000000001,0.9128457,-0.004367800000000001
12316,13:40:27.149000,-1.1108619,-6.1839571,5.2598348,-0.8838564,0.9983668,-0.004367800000000001
12317,13:40:27.158000,-1.7429038000000001,-6.5718012,4.9988779999999995,-0.8838564,0.9983668,-0.004367800000000001
12318,13:40:27.167000,-1.5561641000000002,-6.1839571,4.948602200000001,-0.8728608,1.1926217,-0.0959975
12319,13:40:27.177000,-1.3957596,-6.4042139,4.601458099999999,-1.1819583999999999,1.2976903999999998,-0.23771810000000002
12320,13:40:27.192000,-1.1970493999999998,-6.665171099999999,4.479359099999999,-1.4458518999999999,1.3575552,-0.30124809999999996
12321,13:40:27.197000,-1.2185962,-7.2134194,4.290225,-1.7561712,1.4247503000000001,-0.3440086
12322,13:40:27.207000,-0.9720040999999999,-7.6204165999999995,4.0149035,-1.7561712,1.4247503000000001,-0.3440086
12323,13:40:27.216000,-0.8834224,-8.0848713,3.7587349000000003,-2.0249517,1.4846151,-0.3769953
12324,13:40:27.227000,-0.9600335999999999,-8.3338575,3.5121427000000005,-2.5234172000000004,1.5469233999999998,-0.38554740000000004
12325,13:40:27.240000,-0.8379346,-8.6019974,2.9926236,-2.7188939999999997,1.5628058999999999,-0.3757736
12326,13:40:27.245000,-1.5537702,-8.1543007,2.9710765,-2.7188939999999997,1.5628058999999999,-0.3757736
12327,13:40:27.256000,-1.6662928,-8.405680699999998,2.1762357000000003,-3.1355037999999995,1.5408146,-0.39776469999999997
12328,13:40:27.264000,-1.4723707000000001,-8.400893199999999,1.7500861,-3.4116147000000003,1.403981,-0.40509509999999993
12329,13:40:27.275000,-2.3294580000000003,-8.3290691,0.5171254,-3.4116147000000003,1.403981,-0.40509509999999993
12330,13:40:27.284000,-2.7675784,-9.0832109,-0.3806617,-3.8795368999999997,1.2915819,-0.3293478
12331,13:40:27.293000,-2.8058836,-8.7600069,-0.9025753000000001,-4.1226611,1.1571915000000002,-0.44052520000000006
12332,13:40:27.306000,-2.9064360000000002,-10.1390076,-3.4020143,-4.564927099999999,0.7027081999999999,-0.5077204000000001
12333,13:40:27.313000,-1.551376,-13.857044199999999,-3.5456602999999998,-4.564927099999999,0.7027081999999999,-0.5077204000000001
12334,13:40:27.324000,-2.9998057,-14.778772400000001,-3.2679447999999995,-2.8874927,0.9714888,-0.423421
12335,13:40:27.333000,-4.522452400000001,-14.060542100000001,-3.4020143,-2.8874927,0.9714888,-0.423421
12336,13:40:27.342000,-3.6126949999999995,-13.6607265,-3.2607625,-1.9149961,0.9714888,-0.4197558
12337,13:40:27.354000,-3.4738371,-13.0789614,-2.813066,-0.6028587,0.5157837000000001,-0.6518844
12338,13:40:27.361000,-3.2272451,-13.0215034,-2.3414285,-0.6028587,0.5157837000000001,-0.6518844
12339,13:40:27.372000,-2.9447415,-12.865886699999999,-2.2025707000000003,-0.4757988,0.35451540000000004,-0.5944632
12340,13:40:27.382000,-2.4635274,-12.399037400000001,-2.3773401,-1.0475682,0.060078599999999996,-0.19984449999999998
12341,13:40:27.391000,-2.4204338,-11.8603649,-2.7963072999999996,-1.5057167,-0.041325,0.13979629999999998
12342,13:40:27.403000,-2.3893106,-11.3767567,-3.1482398999999996,-1.8905616000000003,-0.09263760000000001,0.4036898
12343,13:40:27.410000,-2.2863643,-10.754291499999999,-3.3661027000000003,-1.8905616000000003,-0.09263760000000001,0.4036898
12344,13:40:27.424000,-2.135536,-10.2539253,-3.3158267,-2.1300204,-0.1292895,0.7347785
12345,13:40:27.430000,-1.8506383999999998,-9.3944426,-2.7963072999999996,-2.1300204,-0.1292895,0.7347785
12346,13:40:27.439000,-1.5178586,-8.1830292,-2.0038607,-1.7867144,-0.0755334,0.7848694
12347,13:40:27.452000,-1.1826848,-6.7657232,-0.8068113,-1.648659,0.0014356,0.7799824000000001
12348,13:40:27.457000,-0.7780821,-5.3771458,0.2394099,-1.648659,0.0014356,0.7799824000000001
12349,13:40:27.471000,-0.2920801,-4.1800966,1.1348027,-1.8184793999999997,0.23967280000000002,0.7604348000000001
12350,13:40:27.477000,0.4788198,-3.5265076,1.8219091,-1.8184793999999997,0.23967280000000002,0.7604348000000001
12351,13:40:27.489000,1.2928133999999998,-3.2799153,1.7189629000000002,-2.3242755,0.6575043,0.5564060000000001
12352,13:40:27.496000,2.0134369999999997,-3.2799153,1.0988913999999999,-2.3242755,0.6575043,0.5564060000000001
12353,13:40:27.507000,2.7292726000000003,-3.006988,0.4500906,-2.8056368999999997,1.3563334999999999,0.44034170000000006
12354,13:40:27.518000,3.8042231,-2.1499007000000003,0.1532223,-3.0145526,1.7643912,0.39880290000000007
12355,13:40:27.526000,4.7091918,-1.4580061000000002,0.07661119999999999,-3.0145526,1.7643912,0.39880290000000007
12356,13:40:27.540000,6.095375499999999,-1.6974159,0.22743939999999999,-3.4213883999999997,2.5181982999999994,0.10803130000000001
12357,13:40:27.546000,7.4264946,-2.5042272,0.23222759999999998,-3.7598076000000002,2.7686527,-0.0226938
12358,13:40:27.556000,8.4344101,-3.58636,0.23222759999999998,-3.7598076000000002,2.7686527,-0.0226938
12359,13:40:27.566000,9.236433,-5.630920400000001,0.2513804,-4.210625599999999,2.9238124,-0.0446849
12360,13:40:27.575000,9.6721592,-6.9141569,0.12449310000000001,-4.549044599999999,2.9910072999999997,-0.0031460999999999998
12361,13:40:27.585000,9.9259329,-7.618022,-0.0119705,-4.751851599999999,2.9506902999999998,0.0860402
12362,13:40:27.594000,10.1892843,-8.269216499999999,-0.5602191,-4.9253373,2.8334042999999998,0.2094348
12363,13:40:27.605000,10.5268517,-9.3944426,-1.2592959,-5.2942995999999996,2.6892402,0.5942795999999999
12364,13:40:27.614000,11.046372400000001,-10.9218779,-2.52338,-5.372489900000001,2.7393312,0.985233
12365,13:40:27.624000,10.378418,-12.351155300000002,-3.9335042999999996,-5.241765,2.8737214,1.4311643
12366,13:40:27.636000,9.6218834,-13.6439686,-4.852837999999999,-5.241765,2.8737214,1.4311643
12367,13:40:27.643000,9.181368800000001,-14.790741899999999,-6.339573400000001,-5.1525788,3.1388366000000003,1.9931598000000001
12368,13:40:27.654000,8.783947900000001,-15.4060249,-7.9962902,-4.8166032,3.7668056000000005,3.1501377
12369,13:40:27.662000,8.8054953,-15.7507763,-10.0815496,-4.8166032,3.7668056000000005,3.1501377
12370,13:40:27.672000,8.6977606,-16.3229656,-12.5977478,-4.8166032,3.7668056000000005,3.1501377
12371,13:40:27.684000,8.3721638,-16.8448772,-15.844145800000002,-4.723751999999999,4.695320099999999,5.1293391999999995
12372,13:40:27.690000,9.3800793,-16.820938100000003,-18.0108032,-4.6809912,4.6207948,5.8855901
12373,13:40:27.703000,9.7846823,-16.2128372,-20.366598100000004,-4.583252900000001,4.4253182,6.6174059000000005
12374,13:40:27.709000,10.627404199999999,-15.9207573,-20.673042300000002,-4.583252900000001,4.4253182,6.6174059000000005
12375,13:40:27.720000,10.9051199,-14.8075008,-22.4279175,-4.5209446,4.182193799999999,7.279583000000001
12376,13:40:27.731000,11.1493177,-13.1555729,-23.402315100000003,-4.5502663,3.8682091,7.812257300000001
12377,13:40:27.739000,11.9585228,-12.782093,-24.872291600000004,-4.7933902999999995,3.4125042000000003,8.3913565
12378,13:40:27.750000,12.8539162,-11.795724900000002,-25.858659699999997,-4.3767805,1.6739831000000003,9.4970217
12379,13:40:27.759000,13.964777900000001,-9.897204400000001,-26.351844800000002,-4.3767805,1.6739831000000003,9.4970217
12380,13:40:27.769000,16.093132,-7.2804546000000006,-26.914457300000002,-3.2307987000000002,0.6220741,10.0810089
12381,13:40:27.779000,16.6054688,-5.08746,-28.4275284,-0.2326746,-1.567265,10.515944500000002
12382,13:40:27.788000,17.7642117,-2.8417952,-26.335086800000003,-0.2326746,-1.567265,10.515944500000002
12383,13:40:27.800000,18.2669735,0.9911568999999999,-27.393278100000003,2.749567,-2.8170943,10.6723261
12384,13:40:27.807000,18.391466100000002,5.9541235,-29.737100599999998,2.749567,-2.8170943,10.6723261
12385,13:40:27.820000,18.901409100000002,13.684667600000001,-31.286081300000003,6.4416337,-3.2679124,10.322911300000001
12386,13:40:27.826000,14.8098946,15.097187,-32.8111229,6.4416337,-3.2679124,10.322911300000001
12387,13:40:27.837000,12.320032099999999,12.2984848,-31.9827652,8.0995197,-2.9038372000000003,9.5898733
12388,13:40:27.851000,11.5227966,12.279332199999999,-30.338020299999997,11.932086,-2.8073206,8.3828049
12389,13:40:27.868000,9.4519024,11.4557629,-27.8505497,11.096423099999999,-3.3522117,7.3993125
12390,13:40:27.868000,6.6484122,10.550792699999999,-25.387023899999996,11.096423099999999,-3.3522117,7.3993125
12391,13:40:27.874000,4.383595,14.6638546,-22.9618015,11.096423099999999,-3.3522117,7.3993125
12392,13:40:27.884000,1.3981537,16.8783951,-21.819816600000003,6.649327799999999,-4.0950232,5.8721509
12393,13:40:27.893000,-0.1197049,18.590175600000002,-20.0433941,6.649327799999999,-4.0950232,5.8721509
12394,13:40:27.903000,-0.5674013000000001,20.2564697,-17.699571600000002,4.78619,-4.4102292,4.849563099999999
12395,13:40:27.916000,-3.0955698,21.2572021,-14.6183672,3.6267686,-4.6252537,4.3303285
12396,13:40:27.923000,-4.673281200000001,21.3386021,-13.9264717,3.1307466,-4.4859767,3.9858007000000004
12397,13:40:27.934000,-2.2480588,18.4201965,-9.1550341,1.9432255,-4.934351400000001,2.3584568999999997
12398,13:40:27.943000,-5.3986925999999995,13.7469149,-8.6738195,1.0428109,-4.9355731,1.0658671999999998
12399,13:40:27.953000,-4.0747561,11.3384523,-8.3817396,1.0428109,-4.9355731,1.0658671999999998
12400,13:40:27.968000,-1.745298,10.467,-8.022625,-1.6633198,-7.005182700000001,-1.0587204
12401,13:40:27.972000,1.1276205,10.313777,-9.188550900000001,-3.392067,-7.8762755,-2.4612658
12402,13:40:27.985000,4.2231898,11.632926,-10.864419900000001,-5.0352926,-8.2342424,-3.5864785000000006
12403,13:40:27.991000,8.7169142,11.915429099999999,-13.1052971,-5.0352926,-8.2342424,-3.5864785000000006
12404,13:40:28,18.1185398,4.8265028,-12.8395519,-5.9723592000000005,-7.722337700000001,-4.6518264
12405,13:40:28.016000,16.9334602,-0.9720040999999999,-8.0034723,-5.6143928,-5.9984775,-4.441689
12406,13:40:28.020000,10.4693937,-5.3771458,-4.0484209,-4.9241157,-3.9313116000000004,-4.0910525
12407,13:40:28.033000,8.6857901,-4.6397634000000005,-1.5417996999999999,-4.5979137,-3.1836131,-4.5296535
12408,13:40:28.040000,9.3250151,0.1268872,-0.2777155,-4.2729335,-3.2337041,-5.1527357
12409,13:40:28.048000,10.6441631,2.5736562999999997,0.11252260000000001,-4.2729335,-3.2337041,-5.1527357
12410,13:40:28.058000,14.113211600000001,-0.8570873999999999,0.9456690000000001,-3.9577277000000004,-3.161622,-5.5620151
12411,13:40:28.069000,15.1929512,-6.792058,2.2145412,-3.8294461,-2.009531,-5.5351372
12412,13:40:28.084000,9.6889181,-9.2627678,3.2607625,-3.8294461,-2.009531,-5.5351372
12413,13:40:28.088000,8.5301743,-7.524652499999999,3.0309291000000003,-3.3835148999999998,-1.1970811000000001,-5.087984099999999
12414,13:40:28.098000,9.597942399999999,-4.9055085,3.126693,-2.7860892,-0.8574402,-4.885177099999999
12415,13:40:28.107000,9.351349800000001,-3.5456602999999998,2.6550555,-2.7860892,-0.8574402,-4.885177099999999
12416,13:40:28.117000,8.7336721,-4.316559799999999,1.0103096999999999,-3.6412997000000003,0.1993557,-4.5223231
12417,13:40:28.133000,8.6738195,-6.9069747999999995,-0.2130748,-4.0640178,0.7955597,-4.3280683
12418,13:40:28.136000,7.936437599999999,-9.384866699999998,-0.9672159,-4.2326164,1.2695906000000001,-4.0727267
12419,13:40:28.148000,7.5845050999999994,-12.8347626,-0.8738461,-4.2240644,1.6727613999999997,-3.7611858999999996
12420,13:40:28.156000,7.1392026,-19.394594199999997,0.36629709999999993,-4.2240644,1.6727613999999997,-3.7611858999999996
12421,13:40:28.166000,1.7644508,-23.3161278,-0.5027608,-2.5429649,2.4192381000000003,-2.7043898
12422,13:40:28.176000,1.9679491999999998,-25.3582935,0.5721896,-2.5429649,2.4192381000000003,-2.7043898
12423,13:40:28.185000,0.46445519999999996,-14.627943,-1.3622421,-1.784271,0.8419853999999999,-3.2578332000000003
12424,13:40:28.197000,3.6653652,-8.496656399999999,0.2154689,-3.3884017,0.08940010000000001,-4.29386
12425,13:40:28.205000,4.8169265,-7.926860799999999,-1.2880251,-3.3884017,0.08940010000000001,-4.29386
12426,13:40:28.214000,8.7456427,-11.908247,-3.5432663,-7.238071000000001,-0.0633161,-4.4245849
12427,13:40:28.223000,12.6169004,-20.1439457,-4.529635,-7.238071000000001,-0.0633161,-4.4245849
12428,13:40:28.233000,13.7612801,-26.5649204,-4.388382900000001,-8.1128292,0.5707615,-3.6451216
12429,13:40:28.247000,17.1872349,-29.2127914,-5.934970900000001,-7.501964599999999,1.4100895,-2.8057933
12430,13:40:28.253000,20.6538906,-25.5737629,-9.0329351,-3.2026988999999997,1.9378767,-2.1717157000000005
12431,13:40:28.264000,25.1356411,-21.896427199999998,-11.723901699999999,-1.0548985,2.0661582999999997,-1.9933433999999997
12432,13:40:28.272000,27.0197983,-16.8568497,-14.328681,-1.0548985,2.0661582999999997,-1.9933433999999997
12433,13:40:28.282000,30.175220500000002,-10.7088041,-14.692584,1.6121368,3.3856260999999996,-2.6628511
12434,13:40:28.295000,32.1479568,-5.6069794,-13.5242643,1.6121368,3.3856260999999996,-2.6628511
12435,13:40:28.300000,32.5334091,-3.7994347,-10.440665199999998,1.6011413,4.1748633,-3.2810462
12436,13:40:28.313000,31.7936325,-4.295013,-6.564619099999999,-1.5594728,5.359941,-3.5901437000000005
12437,13:40:28.320000,29.231946899999997,-6.5047665,-6.169592400000001,-1.5594728,5.359941,-3.5901437000000005
12438,13:40:28.331000,25.379840899999998,-8.1590881,-7.5677462,-6.2900089999999995,6.2175951,-2.4795916
12439,13:40:28.340000,18.597360600000002,-9.384866699999998,-9.5380888,-6.2900089999999995,6.2175951,-2.4795916
12440,13:40:28.349000,9.9594507,-9.068845699999999,-12.4995899,-9.3553286,6.8480077,0.1483484
12441,13:40:28.364000,1.9440081000000002,-8.6810017,-14.2592516,-10.8629427,6.7185044000000005,1.7964615000000002
12442,13:40:28.369000,-4.582305,-10.845267300000001,-14.1682758,-10.8629427,6.7185044000000005,1.7964615000000002
12443,13:40:28.380000,-8.6355143,-15.154645,-17.421855899999997,-12.2777052,6.5401316,3.266202
12444,13:40:28.387000,-2.7603958,-18.4632893,-16.1625614,-12.56359,6.4448365999999995,4.4072971
12445,13:40:28.397000,-0.411785,-16.303812,-17.9748936,-12.0724545,6.0587702000000005,5.5581665000000005
12446,13:40:28.412000,-0.3303856,-13.2633066,-16.5001297,-9.4775009,3.9463998999999994,5.724321400000001
12447,13:40:28.417000,1.2401432,-9.5189371,-16.557586699999998,-7.440877900000001,2.3251647999999996,6.2985344
12448,13:40:28.427000,7.1032910000000005,-6.468854900000001,-16.449852,-7.440877900000001,2.3251647999999996,6.2985344
12449,13:40:28.437000,7.914890299999999,0.122099,-12.9760151,-3.1281734,-0.7413759,6.401159799999999
12450,13:40:28.446000,13.1340256,5.6213441,-18.068264000000003,-1.1355326000000001,-1.6992118000000003,6.3938293
12451,13:40:28.460000,11.5227966,7.1248379,-22.0496502,0.73127,-2.9331586,6.0321975
12452,13:40:28.466000,9.408807800000002,5.2718053,-22.475799600000002,3.3005669,-4.259956400000001,5.9369025
12453,13:40:28.479000,7.5533814,8.9754763,-23.2634583,5.6023054000000005,-5.0931759,6.2093482
12454,13:40:28.485000,6.9141569,12.3415794,-25.1212788,5.6023054000000005,-5.0931759,6.2093482
12455,13:40:28.496000,3.5552367999999994,16.516887699999998,-25.1835232,6.971864200000001,-5.3265262,5.785408
12456,13:40:28.506000,1.309572,16.9741592,-25.161977800000003,6.1484184,-6.0314641,4.612547900000001
12457,13:40:28.515000,-0.9001811,17.7737904,-24.2234917,3.8650059999999997,-6.617894199999999,3.6437163
12458,13:40:28.530000,-1.8602147,19.794408800000003,-19.5693645,2.1863496,-6.856131599999999,2.7225322999999997
12459,13:40:28.534000,-4.316559799999999,18.709882699999998,-13.6703043,1.4911857,-6.6374421,1.6803971999999998
12460,13:40:28.546000,2.5377447999999996,27.706903499999996,-1.9607668999999999,0.997607,-6.3992047,0.7518826999999999
12461,13:40:28.553000,2.7915192,30.6851635,-1.0629798000000001,0.997607,-6.3992047,0.7518826999999999
12462,13:40:28.563000,-2.3917048,15.425177599999998,7.402553599999999,-1.14775,-5.2300096,-0.378217
12463,13:40:28.575000,-3.0764169999999997,11.2594461,6.993162599999999,-1.4250826,-3.7333915,-2.2682322999999998
12464,13:40:28.582000,1.4795530000000001,8.175847099999999,-0.09097569999999999,0.19248729999999997,-3.6894093,-1.5852857
12465,13:40:28.596000,0.4261496,5.4489684,-7.874190799999999,1.0892366000000002,-5.4523644,-2.721494
12466,13:40:28.601000,4.043633,2.9231944,-14.5154209,1.0892366000000002,-5.4523644,-2.721494
12467,13:40:28.611000,10.361659,-0.7780821,-15.226468099999998,1.5241723,-6.3222361,-3.0122657000000004
12468,13:40:28.623000,10.2228022,-5.5686735999999994,-11.005672500000001,0.042214499999999995,-6.198841099999999,-2.5272391
12469,13:40:28.630000,10.4215117,-10.0983086,-4.3572593,-1.3261225,-5.2801008000000005,-1.8846093000000002
12470,13:40:28.643000,14.240098999999999,-14.948753400000001,0.023941,-2.1434596000000004,-4.5690541,-1.3079531
12471,13:40:28.649000,17.019647600000003,-19.5406342,-0.4788198,-2.1434596000000004,-4.5690541,-1.3079531
12472,13:40:28.660000,19.9500237,-23.3735867,-1.5944698,-2.3389361,-3.2275953,-1.195554
12473,13:40:28.669000,19.2437668,-24.810045199999998,-0.5362781,-1.4678431,-2.5092185000000002,-1.7758754
12474,13:40:28.679000,20.8789368,-28.386827500000003,0.8211759,-0.0579673,-1.5061786,-2.6811769
12475,13:40:28.693000,23.6920013,-30.560670899999998,0.0263351,-0.0579673,-1.5061786,-2.6811769
12476,13:40:28.698000,23.2873974,-28.8608608,-0.5123371,1.3335825000000001,-0.4286132,-3.4704142
12477,13:40:28.712000,21.7551765,-19.6148529,-0.7302001,2.4319172000000004,1.6092315000000001,-4.282864099999999
12478,13:40:28.717000,22.6266289,-15.690922699999998,-2.5066216,2.4319172000000004,1.6092315000000001,-4.282864099999999
12479,13:40:28.728000,21.7503872,-20.280410800000002,-4.9653611,-1.7073021000000002,3.9549519999999996,-4.6493831
12480,13:40:28.740000,19.0713902,-21.6235008,-6.3539381,-3.1880381,5.3147367999999995,-3.8613677
12481,13:40:28.746000,17.6085968,-19.0043564,-7.5533814,-3.1880381,5.3147367999999995,-3.8613677
12482,13:40:28.759000,13.730155900000002,-17.658872600000002,-8.5229921,-3.3175413999999996,6.5670099,-2.6420817000000003
12483,13:40:28.767000,6.083405,-14.0892706,-12.188357400000001,-3.3175413999999996,6.5670099,-2.6420817000000003
12484,13:40:28.778000,3.0285349,-14.369381,-9.6961002,-2.5686214,6.5425754000000005,-2.2193632
12485,13:40:28.791000,-1.2712663,-12.6456299,-7.914890299999999,-1.0720028,5.3513889,-2.3073277
12486,13:40:28.795000,-4.0747561,-10.3879938,-6.2605680999999995,-1.6413287,4.981205,-1.4887691
12487,13:40:28.808000,-2.2959406,-12.365519500000001,-5.365175700000001,-2.4281224999999997,4.375227,-0.6421106
12488,13:40:28.814000,-1.4675825,-9.3657141,-9.7200413,-3.2674506,3.8828699999999996,0.673692
12489,13:40:28.824000,1.0342506999999999,-1.1683203000000002,-10.6465569,-3.7769117,2.6318189999999997,1.035324
12490,13:40:28.834000,1.2712663,-0.6104951999999999,-8.4320164,-3.7769117,2.6318189999999997,1.035324
12491,13:40:28.843000,-4.7211623,-5.1497064,-5.736260400000001,-4.6736608,2.6098277999999997,0.7787607
12492,13:40:28.856000,-4.687645400000001,-9.6362467,-5.8607535,-5.146470099999999,2.4607767999999997,2.9558825
12493,13:40:28.863000,-0.13406949999999998,-7.0530152,-8.793524699999999,-5.146470099999999,2.4607767999999997,2.9558825
12494,13:40:28.873000,1.041433,-0.5171254,-10.071972800000001,-4.903346099999999,1.0765573999999998,3.495887
12495,13:40:28.883000,2.3222756,3.9358983,-10.1126728,-5.2723083,-1.513509,4.282681
12496,13:40:28.892000,1.4580061000000002,3.5097487000000003,-12.5115604,-5.2723083,-1.513509,4.282681
12497,13:40:28.902000,1.5394055,-5.3364458,-13.1436024,-6.1568403,-2.0278571,4.577117400000001
12498,13:40:28.912000,3.6390300000000004,-7.543805099999999,-13.5194759,-4.9180069,-2.6301696,5.3235941
12499,13:40:28.922000,2.7939133999999997,-5.669226200000001,-13.9959011,-4.9180069,-2.6301696,5.3235941
12500,13:40:28.932000,3.2248509,-3.4618669,-15.8632984,-2.9473574,-2.9991319,5.861155
12501,13:40:28.943000,3.272733,0.10773440000000001,-16.1003132,1.9285648000000002,-3.288682,5.6583480999999995
12502,13:40:28.950000,0.9480630999999999,3.5815718,-16.143407800000002,1.9285648000000002,-3.288682,5.6583480999999995
12503,13:40:28.960000,-1.1036795,7.060196899999999,-15.9901857,3.7269504,-3.0993137,5.3920112
12504,13:40:28.973000,-2.6981492,9.9259329,-14.680614499999999,5.2223477,-2.9356022,4.3999667
12505,13:40:28.979000,-4.7355275,8.4846859,-12.377491000000001,5.2223477,-2.9356022,4.3999667
12506,13:40:28.990000,-6.0115819,5.595008900000001,-12.5378952,4.601708900000001,-4.0119457,3.1635766
12507,13:40:28.999000,-4.522452400000001,2.66942,-12.3056679,4.601708900000001,-4.0119457,3.1635766
12508,13:40:29.008000,-2.6574495,1.8027563999999998,-12.9640446,4.3866844,-5.0003247,2.8190489
12509,13:40:29.017000,8.9826584,5.556703099999999,-6.495190099999999,4.376910700000001,-5.919065,2.3780046
12510,13:40:29.027000,10.6704979,10.301807400000001,1.8721851999999999,1.5693763,-5.0076551,2.0835679
12511,13:40:29.039000,-13.971960099999999,-1.817121,4.4242945,-0.24244839999999998,-3.54158,1.5508938
12512,13:40:29.047000,-5.2502584,-7.218207400000001,-6.0211587,-0.24244839999999998,-3.54158,1.5508938
12513,13:40:29.057000,1.7620566000000002,-9.420779199999998,-13.0382624,2.4123697,-6.890339900000001,1.5997629
12514,13:40:29.068000,6.171986599999999,-6.686717999999999,-15.101975400000002,4.4453278,-7.2861804999999995,1.2039226
12515,13:40:29.077000,7.8670086999999995,0.3998145,-13.8738022,5.287099400000001,-6.5494775999999995,-0.4722902
12516,13:40:29.090000,7.9795308,4.4506296999999995,-10.378418,3.7477199999999997,-4.8414998,-3.0525827000000003
12517,13:40:29.096000,2.0900483,5.1616769,-6.3036617999999995,3.7477199999999997,-4.8414998,-3.0525827000000003
12518,13:40:29.106000,5.1856179000000004,-3.6174831,-7.0147095,-0.5075637,-2.4701231,-4.5479794
12519,13:40:29.114000,11.4413977,-12.6408405,-6.2988739,-0.5075637,-2.4701231,-4.5479794
12520,13:40:29.124000,10.5316401,-16.495340300000002,-3.3661027000000003,-1.1856235000000002,-2.0816131,-5.7440529
12521,13:40:29.137000,10.869208300000002,-17.3332748,-2.2073591,-0.8227699,-1.4964046,-6.838722200000001
12522,13:40:29.145000,15.5927649,-20.9579391,-1.5992579,-0.6419539000000001,-1.0138216,-7.656059299999999
12523,13:40:29.155000,9.6745529,-22.1956902,2.3917048,-0.072628,0.13582579999999997,-7.3872789999999995
12524,13:40:29.164000,4.8312917,-18.250213600000002,1.6615044999999997,-0.072628,0.13582579999999997,-7.3872789999999995
12525,13:40:29.174000,4.654128099999999,-18.3316135,2.0756836,-1.8478009999999998,0.9128457,-5.2407002
12526,13:40:29.186000,1.7357216,-15.7459869,0.0694289,-1.8478009999999998,0.9128457,-5.2407002
12527,13:40:29.193000,-1.1491673999999998,-11.992040600000001,-2.5066216,-3.0719738,1.0008101,-3.4985138999999994
12528,13:40:29.204000,-1.2904191999999999,-12.0710459,-2.9782588,-3.8538806000000005,0.6526173000000001,-0.9194431999999999
12529,13:40:29.213000,-2.66942,-11.5874376,-2.4276164000000002,-3.8538806000000005,0.6526173000000001,-0.9194431999999999
12530,13:40:29.222000,-3.4139847999999997,-8.6857901,-2.1451125,-1.9602001,-0.339427,-0.29758290000000004
12531,13:40:29.232000,-3.5217192,-5.4154515,-1.8913380000000002,-1.9602001,-0.339427,-0.29758290000000004
12532,13:40:29.241000,-1.1563497999999999,-6.8040285,1.6279871000000001,-1.4263042,-0.8268969999999999,-0.7276316999999999
12533,13:40:29.261000,-4.5511813,-7.7329387999999994,-4.2782545,-0.4147123,-1.0138216,-1.4472302
12534,13:40:29.271000,-3.5241132000000004,-5.2023764,-5.8870888,1.3555736999999999,-2.3003027,-3.160095
12535,13:40:29.281000,-1.9847078000000002,1.0342506999999999,-3.6174831,1.3555736999999999,-2.3003027,-3.160095
12536,13:40:29.290000,0.9456690000000001,2.3677638,-2.5114095,0.7569263,-2.7132473,-3.6878818999999994
12537,13:40:29.302000,2.0756836,-0.3495384,-1.1874731,0.9902766,-1.8384890999999999,-4.083722600000001
12538,13:40:29.309000,0.3974204,-4.1896729,-2.2145412,0.9902766,-1.8384890999999999,-4.083722600000001
12539,13:40:29.321000,1.2736604999999999,-5.7865367,-0.40220859999999997,1.7782921000000003,-1.1616508999999997,-1.6646981
12540,13:40:29.329000,4.1202440000000005,-6.2605680999999995,0.4620611,1.2077444,-1.1091166000000001,-1.2102146999999999
12541,13:40:29.338000,7.1535668,-6.1480455,1.4029418,0.3097733,-0.8097928000000001,-1.0489465
12542,13:40:29.351000,9.8780508,-6.2629623,1.1419852,0.3097733,-0.8097928000000001,-1.0489465
12543,13:40:29.358000,13.0693846,-5.870329900000001,1.5801051000000002,-0.5906413,-0.31010540000000003,-0.8400308000000001
12544,13:40:29.369000,15.8489342,-5.384327900000001,1.9559786,-2.0567167,0.34718499999999997,-1.349492
12545,13:40:29.377000,19.181520499999998,-5.7865367,1.4795530000000001,-2.0567167,0.34718499999999997,-1.349492
12546,13:40:29.388000,23.7422771,-6.3443613,0.12449310000000001,-2.9131491,0.8407636999999999,-2.0935252
12547,13:40:29.397000,30.457723600000005,-6.7202349,-1.3239366000000001,-2.9131491,0.8407636999999999,-2.0935252
12548,13:40:29.406000,38.6192093,-7.948408099999999,-3.2511859,-2.822741,1.457737,-2.6188688
12549,13:40:29.418000,42.5646782,-8.7576132,-4.9821196,-2.3670359,2.5340807,-3.2248466000000002
12550,13:40:29.426000,39.6893692,-9.178975099999999,-4.407536,-2.1055857999999996,3.9781649,-3.6988776
12551,13:40:29.437000,32.892520899999994,-8.3554049,-1.6998101000000003,-3.7280425999999998,6.713617299999999,-3.3103675999999997
12552,13:40:29.446000,25.8251438,-7.1128674,-3.1769691000000004,-3.7280425999999998,6.713617299999999,-3.3103675999999997
12553,13:40:29.455000,19.9691772,-2.6885729,-6.2749329000000005,-9.652208300000002,7.4148898,-0.5126073
12554,13:40:29.467000,13.1866961,-3.4091966,-12.506772,-9.652208300000002,7.4148898,-0.5126073
12555,13:40:29.475000,4.654128099999999,-7.2948189,-16.7060204,-13.5055428,7.030044999999999,1.7610313000000002
12556,13:40:29.485000,-1.8458501,-10.2371664,-19.102514300000003,-15.668004000000002,6.3495421,3.7744415
12557,13:40:29.494000,-4.5416055,-10.3042011,-19.9045353,-16.182354,5.6922517,5.7182131
12558,13:40:29.503000,-6.4209727999999995,-9.171792,-22.2651176,-15.407775899999999,5.0655041,7.5703549
12559,13:40:29.513000,-6.459278599999999,-10.754291499999999,-21.3050842,-14.2349157,3.8401093,8.4023523
12560,13:40:29.523000,-3.7132473,-11.3312693,-19.973966600000004,-11.8574305,3.0325463,7.790266
12561,13:40:29.536000,1.0390389000000002,-10.584310499999999,-17.3667927,-6.666301700000001,1.9415418999999998,7.6632061
12562,13:40:29.542000,6.1336808,-7.230177900000001,-14.778772400000001,-6.666301700000001,1.9415418999999998,7.6632061
12563,13:40:29.552000,9.722435,-3.1602101,-15.822599400000001,-4.0346966,1.3575552,8.247193300000001
12564,13:40:29.562000,11.462945,0.2753213,-17.065136,-2.0848165,0.6660564,8.601494800000001
12565,13:40:29.571000,10.2994127,-0.4237555,-19.5406342,-0.4757988,-1.8116109,7.433521300000001
12566,13:40:29.584000,6.739388000000001,1.9416142,-18.9923859,0.7434871999999999,-2.4029281000000005,7.8049269
12567,13:40:29.591000,6.545465900000001,4.4386592,-19.4161396,0.7434871999999999,-2.4029281000000005,7.8049269
12568,13:40:29.601000,7.4456468,5.9613061,-19.6699162,1.7599661,-3.0602186000000002,7.6522107
12569,13:40:29.610000,6.940492599999999,6.171986599999999,-19.6890678,2.3769395,-3.9484157999999994,7.1586318
12570,13:40:29.620000,6.1097398,6.423367,-19.1384258,3.4911567999999997,-5.0882893,5.7072172
12571,13:40:29.632000,5.4657273,6.3826675,-18.7457943,3.4911567999999997,-5.0882893,5.7072172
12572,13:40:29.639000,4.388382900000001,5.9972177,-17.998834600000002,4.1484475,-5.5329986,4.8263502
12573,13:40:29.652000,4.1489735,5.4824858,-16.9095192,5.0561924000000005,-6.457847599999999,3.5459781
12574,13:40:29.659000,4.8552327,4.9366317,-16.3780308,5.0561924000000005,-6.457847599999999,3.5459781
12575,13:40:29.668000,5.6452851,5.4346042,-15.015787099999999,5.1905828000000005,-7.0357261,3.0560644
12576,13:40:29.681000,7.3810066999999995,8.008260700000001,-12.1069574,5.021984099999999,-7.498761200000001,2.6382328999999998
12577,13:40:29.687000,9.4112024,11.2115641,-10.71838,4.2388554,-7.755324400000001,2.2863748
12578,13:40:29.699000,11.321693400000001,9.605124499999999,-10.9960957,1.6206889,-7.4486704,1.3065479
12579,13:40:29.707000,12.7773046,5.870329900000001,-11.106224099999999,1.6206889,-7.4486704,1.3065479
12580,13:40:29.717000,12.7605457,2.1044127999999995,-11.3671808,0.9633985999999999,-7.120025200000001,0.2350911
12581,13:40:29.727000,11.5826502,-0.3495384,-11.2019882,1.3592389,-6.6337767,-0.6653235
12582,13:40:29.736000,10.3688421,-2.4300102999999997,-9.6218834,4.1460037000000005,-5.724810099999999,-1.9933433999999997
12583,13:40:29.749000,10.5388231,-2.6526616,-6.9285220999999995,5.0268707,-5.0003247,-3.0159309
12584,13:40:29.756000,7.888555499999999,-3.8640754,-4.4506296999999995,5.0268707,-5.0003247,-3.0159309
12585,13:40:29.768000,7.196661,-7.1128674,-3.5696013,4.016500499999999,-3.960633,-5.394638099999999
12586,13:40:29.783000,4.9055085,-8.980263699999998,-2.2863643,4.016500499999999,-3.960633,-5.394638099999999
12587,13:40:29.793000,4.970149,-8.8557711,-0.8259639999999999,1.128332,-4.939238099999999,-6.7251015
12588,13:40:29.802000,6.0211587,-7.9915012999999995,1.4436415,-0.1190538,-5.7296972,-7.1820283
12589,13:40:29.816000,7.0434384,-6.3754849,5.046760099999999,-0.9461646,-6.3906527,-7.177141199999999
12590,13:40:29.823000,7.1128674,-5.3077168,8.2380943,-0.9461646,-6.3906527,-7.177141199999999
12591,13:40:29.832000,6.693900099999999,-4.4434476,9.732010800000001,-0.8301003,-6.0949941,-6.6627932
12592,13:40:29.842000,5.4872746,-4.405141400000001,10.953002,-0.2510005,-5.5855331,-5.9480815
12593,13:40:29.851000,3.3661027000000003,-3.9478687999999993,8.910836199999999,1.8894693999999999,-4.2978301,-4.3109641
12594,13:40:29.863000,3.4044084999999997,-3.5432663,4.9893022,1.8894693999999999,-4.2978301,-4.3109641
12595,13:40:29.872000,7.907708199999999,-2.9088298999999997,2.3917048,2.4587953,-4.0424891,-3.5486050000000002
12596,13:40:29.882000,11.867547,-1.4149123,1.745298,1.2431746000000001,-3.0467793999999997,-2.6689596
12597,13:40:29.891000,9.9762087,-0.5003666,3.0812049,1.2431746000000001,-3.0467793999999997,-2.6689596
12598,13:40:29.904000,7.0003443,-4.1130619,3.8233757000000006,-1.6901978,-1.0358127000000001,-1.7245629
12599,13:40:29.918000,5.48488,-7.498317699999999,3.8066169999999997,-2.6981246,-0.9405178,-1.1711194999999999
12600,13:40:29.922000,5.0850654,-7.835885,4.4458413,-2.9937832,-1.1030078,-0.9145563
12601,13:40:29.933000,6.3036617999999995,-7.9986839000000005,4.7905917,-2.9937832,-1.1030078,-0.9145563
12602,13:40:29.939000,6.229445,-9.0065994,5.2119532,-2.8520625,-1.2667196000000003,-0.8009354000000001
12603,13:40:29.948000,4.922267,-9.7391939,5.281382099999999,-2.6223774,-1.1188903000000001,-0.7215229999999999
12604,13:40:29.958000,4.417111900000001,-9.767923399999999,4.776227,-2.5063131000000003,-1.043143,-0.748401
12605,13:40:29.967000,5.044365900000001,-9.882840199999999,4.026874100000001,-2.5063131000000003,-1.043143,-0.748401
12606,13:40:29.977000,6.8950043,-11.0487661,2.5353506,-2.4293442,-0.8415577,-0.6396672
12607,13:40:29.986000,10.833296800000001,-13.2154245,0.46445519999999996,-2.4293442,-0.8415577,-0.6396672
12608,13:40:29.996000,16.0548267,-14.457962,-1.8937321,-2.3670359,-0.6546331999999999,-0.36722140000000003
12609,13:40:30.007000,19.679493,-14.481903099999998,-3.8066169999999997,-2.2350891,-0.3968483,-0.0617891
12610,13:40:30.017000,22.7846375,-13.1914845,-5.1760416,-2.0652688,-0.0266642,-0.085002
12611,13:40:30.029000,27.848156,-11.0200367,-5.685984599999999,-2.3157234,1.2891383,-1.0929288000000001
12612,13:40:30.036000,29.773012199999997,-14.6973724,-8.9204121,-2.3157234,1.2891383,-1.0929288000000001
12613,13:40:30.047000,33.586811100000006,-16.3373299,-8.9132299,-2.8325147999999998,2.3117259,-1.8027536
12614,13:40:30.056000,33.51977539999999,-16.883184399999998,-7.8789792,-3.3150980000000003,3.4308300000000003,-2.3244319
12615,13:40:30.066000,28.4801979,-15.9327269,-6.875851600000001,-5.4751153,5.1717949,-2.4661527000000003
12616,13:40:30.079000,25.0159378,-14.031812699999998,-7.220602,-7.150106399999999,5.6250563,-1.9017136000000001
12617,13:40:30.084000,20.136764499999998,-12.8323689,-9.250798199999998,-7.150106399999999,5.6250563,-1.9017136000000001
12618,13:40:30.095000,14.4675388,-12.2458153,-11.527585,-9.828137400000001,6.0343356,0.6639181
12619,13:40:30.104000,9.169398300000001,-11.034400900000001,-13.220212900000002,-9.828137400000001,6.0343356,0.6639181
12620,13:40:30.113000,4.8097444000000005,-9.9211454,-14.762013399999999,-10.1066914,6.092979,2.2460577
12621,13:40:30.124000,0.2777155,-9.6027298,-14.2520704,-9.8256941,6.106417700000001,3.5288737
12622,13:40:30.133000,-6.0283403,-9.150244699999998,-15.6765594,-8.2276716,5.6299434,4.8581152
12623,13:40:30.145000,-6.5885601,-7.1583557,-11.6640491,-7.3822351,4.778398,4.6992908
12624,13:40:30.153000,-5.4681215,-4.7881975,-11.939370199999999,-7.3822351,4.778398,4.6992908
12625,13:40:30.164000,-2.1714474999999998,-4.9773316,-10.071972800000001,-5.4360199,3.1522758,4.7347207000000004
12626,13:40:30.172000,-1.1228323,-5.9804587,-9.3154383,-5.4360199,3.1522758,4.7347207000000004
12627,13:40:30.181000,0.42136140000000005,-5.966094,-9.854109800000002,-3.5227921,1.3147948,5.3736854
12628,13:40:30.194000,3.7132473,-5.9493356,-10.768655800000001,-2.1691158,0.464471,5.5557227
12629,13:40:30.202000,5.334052099999999,-4.5009055,-12.0949869,-2.1691158,0.464471,5.5557227
12630,13:40:30.212000,6.3252090999999995,-3.6294537000000004,-11.357603999999998,0.8913165000000001,-0.4603782,5.7292084999999995
12631,13:40:30.220000,8.0585365,-2.5449269,-10.5819159,0.8913165000000001,-0.4603782,5.7292084999999995
12632,13:40:30.230000,6.2438097,-1.5441937,-11.3647871,2.4209218,-0.7755843000000001,5.8672638
12633,13:40:30.239000,7.0123148,-1.2018377,-12.6145058,2.4209218,-0.7755843000000001,5.8672638
12634,13:40:30.250000,5.6093736,-1.9080968,-12.45889,1.9395603,-1.2630544,5.7194347
12635,13:40:30.261000,4.3405008,-2.3079112,-11.8053007,1.5253941,-1.7627418000000001,5.5044103
12636,13:40:30.269000,1.8793674999999999,-2.7987015,-12.085410099999999,1.3152566,-2.041296,5.450654
12637,13:40:30.278000,1.503494,-3.0141702,-12.269756300000001,1.4496468,-2.1304824,5.3272595
12638,13:40:30.288000,0.2130748,-1.5585582,-10.028880099999999,2.0519595,-2.4469104,5.2625079
12639,13:40:30.297000,1.3071779,4.354865599999999,-11.278598800000001,2.6762631000000003,-2.8085423,5.3406987
12640,13:40:30.317000,-3.3373737,12.9664392,1.7596626,0.12040519999999999,-1.8445976000000002,3.5484214
12641,13:40:30.327000,-4.156155600000001,-0.3758735,-0.6679536,-0.7629051,-2.1268172,3.7121332000000002
12642,13:40:30.336000,-0.7708998,-8.1710587,-4.1848845,-0.7629051,-2.1268172,3.7121332000000002
12643,13:40:30.347000,0.459667,-11.0104599,-7.448041,2.1570282000000005,-4.3295951,4.776259400000001
12644,13:40:30.358000,3.9718099000000002,-11.848395300000002,-10.2204084,4.4880881,-4.7388744,4.991283900000001
12645,13:40:30.366000,5.8511777,-9.7008877,-10.730351400000002,4.4880881,-4.7388744,4.991283900000001
12646,13:40:30.376000,9.4686613,-6.2102919000000005,-9.801440199999998,5.9089594000000005,-5.1554842,5.2637296
12647,13:40:30.386000,10.730351400000002,-4.3141661,-8.2787933,6.141088,-5.5659852,5.2319645999999995
12648,13:40:30.395000,10.1222496,-4.8336854,-6.705870599999999,5.1136136,-5.5097857,4.55757
12649,13:40:30.410000,5.8392072,-5.8248425,-6.2198687,2.0226381,-4.6973357,1.8465523999999998
12650,13:40:30.414000,2.4036752999999997,-7.2014489,-5.209559,2.0226381,-4.6973357,1.8465523999999998
12651,13:40:30.425000,1.7309333999999998,-7.5414109,-3.7395822999999995,0.9047555,-4.6179233,-1.6512591
12652,13:40:30.434000,1.3143603000000001,-7.366642,-2.0637131,0.9047555,-4.6179233,-1.6512591
12653,13:40:30.443000,2.1858122000000004,-8.676214199999999,0.3974204,0.1729396,-4.595932,-4.281642400000001
12654,13:40:30.453000,0.8139936,-10.4693937,0.6847122,0.1729396,-4.595932,-4.281642400000001
12655,13:40:30.462000,0.9097575000000001,-10.5340338,0.3303856,-1.1123198,-4.3149343,-4.94382
12656,13:40:30.477000,1.64714,-10.162948599999998,0.2968683,-3.6290824,-4.886704,-6.1435580000000005
12657,13:40:30.482000,2.3773401,-10.136613800000001,1.309572,-3.6290824,-4.886704,-6.1435580000000005
12658,13:40:30.492000,1.5824993,-9.6362467,3.1961217,-3.5301223,-4.858604,-6.8863697
12659,13:40:30.501000,0.5386721999999999,-8.989841499999999,4.172914,-3.5301223,-4.858604,-6.8863697
12660,13:40:30.511000,-0.48600200000000005,-8.3506165,5.2335,-2.6944594,-4.176878899999999,-6.138671400000001
12661,13:40:30.523000,-1.3622421,-7.1200494999999995,7.1056852,-2.4916522999999997,-3.6613095,-5.4728289000000006
12662,13:40:30.531000,-3.1865456,-5.2502584,3.7922525,-2.4916522999999997,-3.6613095,-5.4728289000000006
12663,13:40:30.543000,-4.2782545,-3.2344275000000002,1.9823137999999998,-2.3780315,-2.3565023,-3.4203233999999996
12664,13:40:30.549000,-3.9095633000000003,-1.0749503,-0.0670348,-2.3780315,-2.3565023,-3.4203233999999996
12665,13:40:30.559000,-3.1099343,0.5267016999999999,-1.4723707000000001,-2.1141379000000002,-1.8678105,-2.9487357000000003
12666,13:40:30.569000,-1.9176731,1.5729228000000002,-1.9464022,-2.6455903,-1.7114291000000001,-2.811902
12667,13:40:30.578000,-1.1060736,1.2042316000000002,0.047882,-2.6174904999999997,-1.3803403,-2.0067823000000002
12668,13:40:30.589000,0.8044171999999999,-2.0493486,2.2887584999999997,-2.9607964,-1.2129636000000001,-1.4460086
12669,13:40:30.597000,2.3821282000000004,-5.097035900000001,0.6488007,-2.9607964,-1.2129636000000001,-1.4460086
12670,13:40:30.607000,4.2495255,-9.1406689,-4.4027476,-3.7207122000000004,-1.0333693000000002,-1.4276826
12671,13:40:30.616000,7.0769558,-14.1515179,-8.542143800000002,-4.484293,-1.3033714,-1.5926161
12672,13:40:30.625000,6.820787400000001,-13.550599100000001,-7.388188400000001,-4.966876,-2.0840566000000003,-2.1582767999999994
12673,13:40:30.636000,3.4882019,-9.7774992,-8.496656399999999,-5.2393217000000005,-2.2893071,-2.7129418999999997
12674,13:40:30.645000,1.7764213,-10.5771284,-4.4745703,-5.3529425,-1.6173561,-2.9255228
12675,13:40:30.655000,3.6246655,-15.3533554,0.122099,-2.4073529,-0.32843140000000004,-2.4123964
12676,13:40:30.666000,3.8592873,-17.364397,3.1985159,-2.4073529,-0.32843140000000004,-2.4123964
12677,13:40:30.675000,2.9208004,-14.8529892,4.455418099999999,-1.0622288999999998,0.243338,-1.9102656999999998
12678,13:40:30.685000,6.9644337,-12.712663699999998,2.2719998,-0.20946170000000003,0.3813934,-1.2651925
12679,13:40:30.695000,12.940103500000001,-10.4502411,-2.9423472999999998,0.15950060000000002,0.2176817,-0.6702104
12680,13:40:30.706000,20.1391582,-8.5948153,-7.764061900000001,-0.1276059,0.0063225,-0.18274029999999997
12681,13:40:30.715000,25.889783899999998,-8.0010777,-8.9754763,-0.1276059,0.0063225,-0.18274029999999997
12682,13:40:30.724000,28.6142673,-8.175847099999999,-7.7808208,-0.3194174,0.5389965,-0.2988046
12683,13:40:30.735000,30.093822499999998,-8.712124800000002,-5.362781,-0.9021823,1.6629877,-0.43441660000000004
12684,13:40:30.743000,32.2173843,-11.194806100000001,-4.1585493,-1.7977101000000002,2.6550319,-0.098441
12685,13:40:30.758000,33.4958344,-12.1069574,-3.5528426,-2.8031932999999998,3.2634529999999997,0.2155435
12686,13:40:30.761000,27.520166399999997,-12.846734,-5.2550468,-3.8636544,3.7118278,0.24730850000000001
12687,13:40:30.774000,21.127922100000003,-12.940103500000001,-9.8732634,-5.109818499999999,4.3214711999999995,0.49409780000000003
12688,13:40:30.783000,15.623888,-11.7885418,-14.1922169,-6.826348299999999,5.0105267,1.1526098999999999
12689,13:40:30.792000,10.4382706,-11.1277714,-17.5463505,-10.1005831,5.527318,3.1721287
12690,13:40:30.804000,4.5703344,-11.707142800000002,-19.5669708,-11.4481506,5.0007524000000005,4.7322774
12691,13:40:30.812000,-1.7764213,-10.608251600000001,-20.270834,-11.4481506,5.0007524000000005,4.7322774
12692,13:40:30.822000,-6.514342299999999,-10.1485853,-18.6835461,-12.3925476,2.8773866000000003,7.8489089000000005
12693,13:40:30.831000,-8.4870796,-8.9036531,-16.3157825,-12.3925476,2.8773866000000003,7.8489089000000005
12694,13:40:30.840000,-4.6445513,-7.3522773,-14.5082378,-11.097514199999999,1.2268302,8.2838449
12695,13:40:30.850000,-1.3550598999999999,-5.4872746,-14.0413895,-8.8837404,-0.5911031999999999,7.9319868
12696,13:40:30.860000,-1.4125183000000001,-4.3572593,-14.2496758,-6.958294900000001,-2.0229702,7.3040175000000005
12697,13:40:30.873000,-1.1084677,-2.4156458,-13.593692800000001,-2.7885325,-4.1280098,5.861155
12698,13:40:30.879000,2.0110431,-1.989496,-13.813949599999999,-2.7885325,-4.1280098,5.861155
12699,13:40:30.889000,4.1920671,-0.5027608,-15.473059699999999,1.3164784,-5.4902382,5.4469891
12700,13:40:30.899000,6.4449139,0.8475109000000001,-16.3852119,1.3164784,-5.4902382,5.4469891
12701,13:40:30.908000,7.2086315,1.4747648000000002,-17.144142199999997,3.138077,-6.463956400000001,5.9283504
12702,13:40:30.920000,6.2342329,1.8793674999999999,-17.156112699999998,3.2749107000000004,-6.385765599999999,5.162325900000001
12703,13:40:30.927000,4.3213482,4.060391399999999,-15.9135742,3.2749107000000004,-6.385765599999999,5.162325900000001
12704,13:40:30.938000,1.9176731,6.8734574,-14.381351500000001,3.4398440999999997,-6.1805153,4.2558026
12705,13:40:30.947000,1.2808429,10.663315800000001,-11.647290199999999,3.5278087,-6.046124900000001,3.1440289
12706,13:40:30.957000,1.1826848,15.135492300000001,-8.7097311,3.5278087,-6.046124900000001,3.1440289
12707,13:40:30.970000,-1.091709,18.5327187,-6.7657232,2.153363,-5.815218,2.5844769
12708,13:40:30.976000,-1.3119662,17.6971779,-3.9263220000000003,2.153363,-5.815218,2.5844769
12709,13:40:30.988000,0.014364600000000002,10.754291499999999,-1.4484297,1.2676091,-5.7700143,1.8624348999999998
12710,13:40:30.996000,-0.44530240000000004,5.0084542999999995,-0.581766,0.9756159,-5.679606,1.7793572
12711,13:40:31.007000,-1.7165686999999998,0.49557840000000003,-1.5465877000000001,1.5180637,-5.6038589000000005,1.6498538
12712,13:40:31.024000,-0.8666638000000001,-2.1379302000000004,-6.476037,3.6206601000000003,-6.2269410999999995,0.35970759999999996
12713,13:40:31.036000,2.0541368,-3.9909625,-7.771244500000001,4.4941969,-6.5519209,-0.532155
12714,13:40:31.042000,4.9533906,-3.7754939,-10.9314547,4.4941969,-6.5519209,-0.532155
12715,13:40:31.053000,5.5375504,-2.159477,-9.4040203,4.6334739,-6.4676218,-1.0098511000000001
12716,13:40:31.063000,4.6589160000000005,0.3279915,-7.766456599999999,3.9615226000000003,-5.872639700000001,-1.2077712999999999
12717,13:40:31.073000,3.3254032,1.4029418,-4.555970200000001,3.3836446000000002,-4.9001427,-2.2108111
12718,13:40:31.087000,1.2066257,1.7261453000000002,-0.9265162,2.2083409,-3.5623492999999993,-4.885177099999999
12719,13:40:31.092000,0.0359115,1.5298291000000002,1.649534,2.2083409,-3.5623492999999993,-4.885177099999999
12720,13:40:31.104000,-0.45248469999999996,0.6224656999999999,1.5537702,0.0947489,-2.3528371,-5.7403874
12721,13:40:31.112000,-0.5410663,-0.2034984,-1.3813950000000002,0.0947489,-2.3528371,-5.7403874
12722,13:40:31.121000,0.9600335999999999,-3.0045941000000003,-3.9718099000000002,-2.7921977000000004,-0.8867617,-7.2919841
12723,13:40:31.134000,5.2909579,-8.8581648,-3.9335042999999996,-2.7921977000000004,-0.8867617,-7.2919841
12724,13:40:31.140000,7.730544999999999,-13.423711800000001,-3.8760457,-3.9772751000000004,-0.2710101,-7.698819599999999
12725,13:40:31.155000,6.2102919000000005,-15.101975400000002,-4.096303,-5.499549900000001,1.1486393999999998,-6.0946889
12726,13:40:31.160000,5.9684882,-15.7507763,-4.2734666,-5.499549900000001,1.1486393999999998,-6.0946889
12727,13:40:31.170000,4.7187686,-12.997562400000001,-4.7858032999999995,-5.910050900000001,1.5847969,-5.6047754
12728,13:40:31.180000,3.5648129,-10.088731800000001,-4.941420099999999,-5.910050900000001,1.5847969,-5.6047754
12729,13:40:31.189000,2.4659216,-7.0434384,-3.6749415,-5.1037097000000005,1.6214488,-5.1209707
12730,13:40:31.203000,2.1044127999999995,-4.898325900000001,-2.5832324,-3.0194395,1.2818079,-3.4545317000000004
12731,13:40:31.208000,2.7939133999999997,-2.9184062,-1.5298291000000002,-3.0194395,1.2818079,-3.4545317000000004
12732,13:40:31.219000,2.9902293999999996,-1.2880251,-1.8626089,-2.6394815,1.0105841,-2.8717667999999996
12733,13:40:31.227000,2.66942,-0.14604,-1.3813950000000002,-2.8923794999999997,0.9385020000000001,-2.5785517999999996
12734,13:40:31.237000,1.0701622,-1.1563497999999999,-0.4716375,-3.8770936000000003,1.3233469,-2.4881437
12735,13:40:31.250000,-0.28489770000000003,-5.310111,-1.6998101000000003,-4.0689049,1.2976903999999998,-2.3549752
12736,13:40:31.256000,0.3974204,-8.7312784,-1.6638986,-4.0689049,1.2976903999999998,-2.3549752
12737,13:40:31.270000,0.0502761,-10.8955431,-4.5799112,-4.445197599999999,0.41804529999999995,-2.0422125
12738,13:40:31.276000,0.18195150000000002,-11.874730099999999,-5.9589119,-4.445197599999999,0.41804529999999995,-2.0422125
12739,13:40:31.286000,-0.45248469999999996,-11.1205893,-8.7193079,-4.456193,0.0820697,-2.2059243
12740,13:40:31.299000,-1.4508239,-10.2491369,-8.2500648,-4.4867363,0.0197615,-2.3427578999999996
12741,13:40:31.305000,-2.3294580000000003,-9.4926023,-5.6644373,-4.4781842,0.04541780000000001,-2.2389109
12742,13:40:31.319000,-2.8106720000000003,-9.427961300000002,-3.7156413,-4.4830713,0.12360850000000001,-1.610942
12743,13:40:31.325000,-3.416379,-9.408807800000002,-3.0452936,-4.4830713,0.12360850000000001,-1.610942
12744,13:40:31.335000,-4.1609435,-11.2163534,-3.5911478999999997,-4.9509935,0.211573,-1.0513899
12745,13:40:31.345000,-2.9471354,-11.9585228,-3.7683115,-4.9509935,0.211573,-1.0513899
12746,13:40:31.354000,5.4824858,-10.9745493,-2.5377447999999996,-4.801942299999999,0.0967304,-0.7215229999999999
12747,13:40:31.367000,4.1034851,-9.6649771,-10.4215117,-3.0927432,0.5206706,-0.055680499999999994
12748,13:40:31.373000,9.8086233,-9.4112024,-14.134758900000001,-3.0927432,0.5206706,-0.055680499999999994
12749,13:40:31.384000,13.8738022,-11.486886,-17.6492958,-2.3694794,1.3954289,0.0420579
12750,13:40:31.393000,17.7737904,-12.8443403,-16.9789486,-2.3694794,1.3954289,0.0420579
12751,13:40:31.402000,22.8492775,-12.327214199999998,-17.8097,-1.7048584999999998,2.1516792999999996,0.3206122
12752,13:40:31.416000,27.414823499999997,-10.4741821,-20.519819299999998,-0.913178,4.0954508999999995,0.8923815
12753,13:40:31.422000,30.101003600000002,-9.4519024,-23.7087593,-0.913178,4.0954508999999995,0.8923815
12754,13:40:31.433000,28.068414699999998,-8.793524699999999,-26.493095399999998,-1.9956303,5.821754900000001,1.5142419
12755,13:40:31.441000,23.2586708,-9.415989900000001,-25.6360092,-1.9956303,5.821754900000001,1.5142419
12756,13:40:31.451000,17.484104199999997,-8.8174658,-23.895500199999997,-3.3407543,6.2041559,2.1153327999999996
12757,13:40:31.460000,12.717452999999999,-8.8054953,-22.9546185,-4.683435,5.9243803,3.2173328
12758,13:40:31.470000,8.427228,-9.011387800000001,-21.6713829,-6.1214104,5.048399900000001,4.4207363
12759,13:40:31.481000,3.416379,-8.467927,-21.999374399999997,-6.6760755000000005,2.7429965,6.1360445
12760,13:40:31.490000,-1.1731083,-7.529440400000001,-20.3378677,-6.6760755000000005,2.7429965,6.1360445
12761,13:40:31.500000,-5.0730948,-6.0163698,-18.8104343,-3.7427032,0.9238413000000001,6.8275433
12762,13:40:31.509000,-6.0307345,-4.1920671,-17.9318008,-3.7427032,0.9238413000000001,6.8275433
12763,13:40:31.519000,-3.2870975,-2.4036752999999997,-15.544882800000002,-1.7806058,0.3032027,6.7212529000000005
12764,13:40:31.531000,-0.36869120000000005,-0.7062590999999999,-12.3320026,1.7269793999999998,-1.0639125,6.0224237
12765,13:40:31.538000,2.7508194,0.9983392,-11.4413977,1.7269793999999998,-1.0639125,6.0224237
12766,13:40:31.549000,4.5846992,1.7237511000000003,-11.8579712,3.3152277000000003,-1.8067241000000003,5.6888914
12767,13:40:31.558000,5.6620436,2.0134369999999997,-12.358338400000001,3.3152277000000003,-1.8067241000000003,5.6888914
12768,13:40:31.567000,7.2421484,2.6742082000000003,-12.1476574,4.2486291,-2.628948,5.7463125999999995
12769,13:40:31.580000,8.2141533,4.1346083,-11.869941699999998,4.7519817,-3.1090877,5.7683039
12770,13:40:31.586000,8.7647963,5.5806441,-12.0303459,4.7519817,-3.1090877,5.7683039
12771,13:40:31.606000,7.1224441999999994,6.6699591,-11.946553199999999,4.8118463,-4.430998799999999,4.9082065
12772,13:40:31.616000,5.9373651,7.1822957999999995,-11.3049335,4.6078176,-4.8390565,4.5245833
12773,13:40:31.626000,4.8384733,8.1902122,-10.6202221,4.6078176,-4.8390565,4.5245833
12774,13:40:31.635000,3.3900437000000005,8.3027344,-10.306594800000001,4.2498507000000005,-5.1664796,4.1446252
12775,13:40:31.646000,3.6701536,8.4583511,-8.2620354,3.6964072999999997,-5.3717303,3.7390112999999996
12776,13:40:31.654000,2.3940987999999996,9.0329351,-7.1200494999999995,3.0733252,-5.4596949,3.4042573
12777,13:40:31.666000,1.3383013000000001,8.082477599999999,-5.6141615,1.6292411,-5.1762538000000005,2.9106786000000002
12778,13:40:31.673000,0.0861876,5.9469414,-4.642157599999999,1.6292411,-5.1762538000000005,2.9106786000000002
12779,13:40:31.683000,-0.48839620000000006,2.8681302000000004,-4.0532093,0.5235759,-5.2532225,2.6370112999999997
12780,13:40:31.697000,-1.2808429,-0.5051548,-4.0172977,0.5809972,-5.4535861,2.4280956000000002
12781,13:40:31.702000,-1.4412475,-3.7156413,-4.3261366,0.9670638,-5.694266799999999,2.1947452999999997
12782,13:40:31.714000,-0.8163876999999999,-5.719501999999999,-4.634975,1.3690127,-5.9337258,1.9736121
12783,13:40:31.722000,-0.5434604000000001,-5.5854325,-4.7211623,1.3690127,-5.9337258,1.9736121
12784,13:40:31.732000,0.2537745,-5.4920626,-4.6900395999999995,2.089833,-6.1047678,1.7194923999999998
12785,13:40:31.741000,2.4539514,-4.3644419,-4.651733900000001,2.089833,-6.1047678,1.7194923999999998
12786,13:40:31.749000,2.813066,-3.4929900000000003,-5.7171078,2.1057155,-5.8274355,1.4983594
12787,13:40:31.760000,2.7460313,-2.9543178,-5.784142500000001,1.9713253000000002,-5.1310496,0.1495701
12788,13:40:31.769000,1.8626089,-1.7764213,-5.413057299999999,1.9713253000000002,-5.1310496,0.1495701
12789,13:40:31.780000,0.8666638000000001,-0.8738461,-4.235160400000001,1.3457998,-4.3540297,-1.8601748
12790,13:40:31.790000,0.0430938,-0.4668492,-3.0500817000000002,1.3457998,-4.3540297,-1.8601748
12791,13:40:31.799000,0.7685057,-0.7230178,-2.0349839,0.6139839,-3.8091385,-2.9682834
12792,13:40:31.811000,3.3589206,-3.153028,-1.3981537,-0.43059480000000006,-3.1689525,-3.90535
12793,13:40:31.819000,5.2215295,-7.2948189,-1.0127038000000002,-1.8734572,-2.5043316000000004,-4.6897001
12794,13:40:31.829000,5.1592832,-11.3671808,0.22265120000000002,-5.328507900000001,-1.0651343,-5.6426492
12795,13:40:31.838000,4.1465788,-13.979143099999998,1.8458501,-5.328507900000001,-1.0651343,-5.6426492
12796,13:40:31.848000,2.8824949,-13.469200099999998,2.8489776,-6.614988799999999,-0.6265334,-5.7868133
12797,13:40:31.860000,2.8992536,-13.117266699999998,1.5417996999999999,-7.3480267999999995,-0.3711919,-5.7061791
12798,13:40:31.867000,2.2624232999999996,-11.795724900000002,0.5051548,-7.4078913,-0.1366199,-5.741609099999999
12799,13:40:31.879000,1.5896816,-10.4143295,-0.2537745,-5.7744393,0.6086351,-5.160066099999999
12800,13:40:31.886000,0.6152834,-8.3937101,-1.2592959,-5.7744393,0.6086351,-5.160066099999999
12801,13:40:31.896000,-0.16758689999999998,-5.6189499000000005,-2.3294580000000003,-4.4464192,0.9812626,-4.4844499
12802,13:40:31.906000,-0.2489863,-3.6797296999999998,-4.4913292,-3.2369072,1.2781428999999997,-3.9383366
12803,13:40:31.915000,-0.5243076,-2.1953886000000002,-5.3579931,-2.3902487999999997,1.3697723999999998,-3.7147601000000003
12804,13:40:31.930000,-1.3622421,-0.9456690000000001,-5.4657273,-2.0176213,1.350225,-3.4924053999999995
12805,13:40:31.935000,-1.7524803,-0.316021,-4.5416055,-2.0738208,1.3978722,-2.9133055
12806,13:40:31.946000,0.22025709999999998,-3.6653652,-3.442714,-3.1403906000000004,0.9006284,-2.036104
12807,13:40:31.954000,1.7189629000000002,-9.765528699999999,-5.688378299999999,-3.1403906000000004,0.9006284,-2.036104
12808,13:40:31.964000,2.0876541,-15.276743900000001,-5.8990593,-3.9809406000000003,0.5402182,-2.0409908
12809,13:40:31.977000,-0.8427228000000001,-17.163293799999998,-5.9301825,-4.4684105,-0.5006952,-1.6781370999999998
12810,13:40:31.984000,-2.0014665000000003,-14.4651451,-6.2366271,-4.4684105,-0.5006952,-1.6781370999999998
12811,13:40:31.994000,-0.7900524999999999,-12.0494986,-6.277327099999999,-3.4873619,-1.5477173,-1.9908998
12812,13:40:32.003000,1.3909714,-12.2960911,-5.8799067,-3.4873619,-1.5477173,-1.9908998
12813,13:40:32.013000,3.7587349000000003,-12.2410269,-4.472176599999999,-2.6174904999999997,-1.6271298,-2.0458776999999997
12814,13:40:32.022000,8.2021828,-11.802907000000001,-3.2344275000000002,-1.5973464,-1.2545023000000002,-1.8076404
12815,13:40:32.032000,13.1124792,-13.2010603,-4.505693900000001,-0.8068874,-0.6448593,-1.2688576999999999
12816,13:40:32.044000,14.7931356,-15.135492300000001,-7.3834004,-1.278475,1.2133911,-0.3159088
12817,13:40:32.052000,17.1225948,-14.773983,-10.8787851,-1.278475,1.2133911,-0.3159088
12818,13:40:32.061000,20.5437622,-13.4356823,-15.3294144,-2.0298386,2.4803245,0.1190268
12819,13:40:32.071000,24.2498264,-12.837157199999998,-18.5662365,-2.6834637999999997,3.9378479,0.4855457
12820,13:40:32.080000,24.901022,-12.7868814,-19.4544468,-3.129395,5.7105775,0.8911598
12821,13:40:32.092000,21.4726715,-11.8723364,-17.498468399999997,-3.7659161,9.319565800000001,1.9149691999999998
12822,13:40:32.100000,18.0754452,-9.471055,-14.730890300000002,-3.7659161,9.319565800000001,1.9149691999999998
12823,13:40:32.111000,16.2104435,-6.8997927,-14.673431400000002,-4.875246,10.5412951,3.2271066000000004
12824,13:40:32.119000,14.673431400000002,-4.8839616999999995,-18.2885208,-4.875246,10.5412951,3.2271066000000004
12825,13:40:32.130000,11.8292418,-4.407536,-21.929943100000003,-5.0511751,9.516264,4.1311865
12826,13:40:32.148000,1.6950218999999997,-6.6627769,-18.4345608,-4.2094035000000005,6.7258344,4.409740900000001
12827,13:40:32.157000,-1.7022042000000002,-3.0859932999999997,-16.4618225,-4.508727599999999,5.049621599999999,4.7029557
12828,13:40:32.166000,0.6152834,-0.4476965,-16.5312519,-4.508727599999999,5.049621599999999,4.7029557
12829,13:40:32.177000,2.2696054,-2.0421662,-15.652618400000001,-4.161756,1.7118567999999998,4.382862599999999
12830,13:40:32.186000,1.3047838,-6.2964797,-13.983930599999999,-4.161756,1.7118567999999998,4.382862599999999
12831,13:40:32.196000,1.1874731,-9.066452,-11.9250059,-2.9070404,0.5060098,4.390193
12832,13:40:32.207000,1.4675825,-8.7480373,-12.547472,1.6316845,-1.3901143,5.0267138
12833,13:40:32.215000,4.515270200000001,-4.0627856,-16.7682686,1.6316845,-1.3901143,5.0267138
12834,13:40:32.225000,4.479359099999999,-1.6686869,-17.6421146,2.9804738,-2.0926087,5.3480291
12835,13:40:32.234000,3.126693,1.4436415,-17.199205399999997,3.8821101000000002,-2.6900343999999996,5.2930512
12836,13:40:32.244000,1.8051505,4.172914,-16.3876057,4.5589485,-3.0980921,5.3297029
12837,13:40:32.258000,-0.014364600000000002,4.4314770999999995,-16.3277531,3.8674492999999996,-3.7346132000000005,5.234407900000001
12838,13:40:32.263000,-1.4053360000000001,4.4626002,-16.203260399999998,3.8674492999999996,-3.7346132000000005,5.234407900000001
12839,13:40:32.275000,-2.130748,5.726684099999999,-17.3979168,3.3628752,-4.322264700000001,5.2209692
12840,13:40:32.284000,-0.8834224,7.929255,-16.9574013,3.0391169,-4.9697814000000005,5.1244526
12841,13:40:32.294000,-0.18195150000000002,11.2594461,-14.510633499999999,2.9438218999999997,-5.4914597999999994,4.715173200000001
12842,13:40:32.303000,0.12928130000000002,13.572146400000001,-10.850055699999999,2.7984362000000003,-5.563541900000001,4.2203726999999995
12843,13:40:32.313000,-0.9863687,11.9058533,-8.848588900000001,2.2010104999999998,-5.2397838,3.676703
12844,13:40:32.326000,1.0222802,7.783214999999999,-7.220602,-0.0213154,-5.1347146,2.8129404
12845,13:40:32.332000,0.3184151,4.682857,-6.875851600000001,-0.0213154,-5.1347146,2.8129404
12846,13:40:32.341000,0.0406997,1.2281727,-7.0147095,-0.9290603000000001,-5.393721599999999,2.5099514
12847,13:40:32.352000,-0.20110429999999999,-0.241804,-7.5821104,-1.2430449,-5.7150364,2.0970068
12848,13:40:32.361000,0.3327797,-1.0964973,-8.1255713,-0.8423176,-6.280696900000001,1.5789936000000002
12849,13:40:32.373000,1.5106763,-1.7022042000000002,-8.5397501,0.1656092,-7.3961358,0.3462685
12850,13:40:32.381000,3.6940942000000003,-2.2121472,-8.5397501,0.1656092,-7.3961358,0.3462685
12851,13:40:32.391000,5.37954,-0.9049693000000001,-9.892416,-0.28398720000000005,-7.5170875,-0.4857292
12852,13:40:32.400000,8.815072099999998,-0.3734794,-8.8605595,-0.28398720000000005,-7.5170875,-0.4857292
12853,13:40:32.410000,12.521136300000002,-0.8882107,-6.966827400000001,-0.6957101,-7.297175900000001,-1.1723411
12854,13:40:32.423000,15.520941699999998,-5.4441805,-3.7946465,-1.1025459999999998,-5.6881585,-3.6829951000000003
12855,13:40:32.430000,12.2673616,-14.479509400000001,-0.9504572,-1.1025459999999998,-5.6881585,-3.6829951000000003
12856,13:40:32.441000,9.851716,-23.591449700000002,-1.0127038000000002,-1.7195194,-2.5483139,-4.2010083
12857,13:40:32.449000,7.2469368,-25.0686073,-3.3469501000000004,-1.7195194,-2.5483139,-4.2010083
12858,13:40:32.459000,7.1344147,-21.391271600000003,-5.726684099999999,-2.1666722000000003,-1.0907905,-5.758713200000001
12859,13:40:32.471000,7.1631436,-15.154645,-6.1743803,-2.3816967,-0.5568948,-6.6236978
12860,13:40:32.478000,7.141596300000001,-10.5914927,-6.3443613,-2.3816967,-0.5568948,-6.6236978
12861,13:40:32.489000,6.6508064,-8.6474848,-6.0881929,-3.1574948,-0.0339946,-6.898587200000001
12862,13:40:32.498000,5.6596494,-9.3082561,-4.3261366,-4.3633418,0.4632493,-7.043972999999999
12863,13:40:32.508000,4.1585493,-11.5204029,-2.3845222,-6.1079712,1.5676927999999999,-5.7098441
12864,13:40:32.516000,2.2552409,-13.3542833,-1.0749503,-6.1079712,1.5676927999999999,-5.7098441
12865,13:40:32.526000,0.0311233,-14.1587,-0.435726,-6.5380201,2.022176,-4.5382055999999995
12866,13:40:32.538000,-1.7189629000000002,-13.610450699999998,-0.6392244,-6.3022260999999995,2.171227,-2.3061061
12867,13:40:32.546000,-2.7723663,-12.102169,-1.5010998,-6.3022260999999995,2.171227,-2.3061061
12868,13:40:32.556000,-3.3014622000000005,-10.550792699999999,-3.2176687999999998,-4.6211267,1.5053843999999998,-0.8217049000000001
12869,13:40:32.565000,-3.1937277,-8.391316400000001,-4.828897,-4.6211267,1.5053843999999998,-0.8217049000000001
12870,13:40:32.575000,-3.1745751,-5.5686735999999994,-5.640496700000001,-3.7146034,1.1058791000000001,-0.42586450000000003
12871,13:40:32.588000,-3.3206151,-3.6390300000000004,-6.875851600000001,-2.73722,0.7686816,-0.2694831
12872,13:40:32.594000,-3.5839657999999996,-2.4467689999999997,-8.0609303,-2.73722,0.7686816,-0.2694831
12873,13:40:32.605000,-4.802562200000001,-1.7692389,-8.0417776,-1.7378453,0.4620275,-0.6922015
12874,13:40:32.614000,-5.9780644999999994,-2.135536,-8.7360659,-1.7378453,0.4620275,-0.6922015
12875,13:40:32.623000,-6.1384692,-1.9655551,-8.2668228,-1.1086546,0.0832914,-0.8864565000000001
12876,13:40:32.636000,-4.2279787,-2.3294580000000003,-6.875851600000001,-0.6761623999999999,-0.5251298000000001,-1.3983611
12877,13:40:32.643000,-0.5290958,-3.8161936,-4.0388446,-0.1935792,-1.2117417,-1.9872346999999997
12878,13:40:32.656000,2.3366406000000004,-5.9684882,-2.0685015,0.5590061,-1.6723337,-2.4417181
12879,13:40:32.662000,1.8673970000000002,-6.966827400000001,-1.9152790000000002,0.5590061,-1.6723337,-2.4417181
12880,13:40:32.672000,0.2777155,-5.7985072,-1.8841558,0.5357932,-0.7010589,-1.3617092
12881,13:40:32.682000,-1.4627944,-3.2392156,-2.9782588,0.5357932,-0.7010589,-1.3617092
12882,13:40:32.691000,-1.3861831,-2.135536,-4.436265000000001,0.356199,-0.5031386999999999,-0.7703922
12883,13:40:32.703000,1.9440081000000002,-4.6182165,-5.1568885,0.0886403,-0.145172,-0.8339221
12884,13:40:32.722000,11.3528156,-6.200716000000001,-3.1602101,0.0886403,-0.145172,-0.8339221
12885,13:40:32.730000,19.5358467,-5.037183799999999,-4.6708865,-0.026202299999999998,0.6672781,-0.47351190000000004
12886,13:40:32.740000,26.588859600000003,-9.681735,-7.2541189,-1.2137233,1.9537592000000001,-0.5822459
12887,13:40:32.756000,28.5041409,-13.9504128,-11.513220800000001,-2.3645926,3.1657147,-0.44785559999999996
12888,13:40:32.758000,30.587005600000005,-16.196077300000002,-15.75317,-2.3645926,3.1657147,-0.44785559999999996
12889,13:40:32.772000,39.634304,-14.1515179,-20.371385600000004,-4.0554657,4.633011799999999,1.256457
12890,13:40:32.778000,39.380531299999994,-10.4693937,-22.8349133,-4.0554657,4.633011799999999,1.256457
12891,13:40:32.788000,31.238199199999997,-10.040849699999999,-23.948169699999998,-4.2509427,5.6543779,2.3169181
12892,13:40:32.797000,21.331420899999998,-8.664242699999999,-24.307283399999996,-4.8569202,6.9970584,3.1195942999999997
12893,13:40:32.807000,11.0918589,-9.712859199999999,-23.531595199999998,-9.410306,6.8003602,5.9332370999999995
12894,13:40:32.819000,1.2999957,-12.217085800000001,-20.3833561,-11.1647091,5.1791253,7.064559
12895,13:40:32.826000,-6.8183932,-13.567357999999999,-19.5933037,-11.1647091,5.1791253,7.064559
12896,13:40:32.836000,-11.0248251,-13.979143099999998,-18.3028831,-11.614305499999999,3.1412802,8.563620599999998
12897,13:40:32.846000,-8.9275942,-10.6561337,-16.5934982,-10.294838,1.1608566999999999,9.6900549
12898,13:40:32.856000,-7.203843099999999,-5.5423384,-15.4563017,-3.3493062999999994,-1.3216975,9.7755766
12899,13:40:32.868000,-7.0745621,-0.509943,-15.6478291,-3.3493062999999994,-1.3216975,9.7755766
12900,13:40:32.875000,-4.0508150999999994,0.7924467,-16.0237026,-0.48312910000000003,-1.6295733000000001,8.7517672
12901,13:40:32.885000,1.1898671,0.8283582,-14.8529892,2.2718708999999997,-1.8384890999999999,7.332117599999999
12902,13:40:32.895000,5.9230003,3.3948319,-14.1060305,2.2718708999999997,-1.8384890999999999,7.332117599999999
12903,13:40:32.904000,8.063324900000001,4.6230044,-16.0811615,2.2327754,-2.322294,7.031571899999999
12904,13:40:32.917000,9.5835772,0.7876585,-16.6413803,1.0159329,-2.9099457,6.5758672
12905,13:40:32.923000,10.0767622,0.6703475999999999,-17.2446938,-0.5234462000000001,-3.7346132000000005,5.6485744
12906,13:40:32.937000,10.2826538,3.1219049,-16.3421173,0.0006757000000000001,-4.9038081,4.7603769
12907,13:40:32.943000,10.917090400000001,5.3244753,-13.845072699999998,0.0006757000000000001,-4.9038081,4.7603769
12908,13:40:32.952000,10.0767622,7.1918726,-8.776765800000002,0.9829462,-5.404717,4.6186566
12909,13:40:32.967000,6.459278599999999,5.384327900000001,-8.451169,1.60725,-5.779788,4.638204099999999
12910,13:40:32.972000,4.3476834,2.2049651000000003,-10.5531874,1.5889239,-5.8677526,4.8226852
12911,13:40:32.984000,2.7149078999999996,2.592809,-13.1124792,2.9254961,-6.9477615,4.9314194
12912,13:40:32.991000,2.2839704,3.4355318999999995,-15.8632984,2.9254961,-6.9477615,4.9314194
12913,13:40:33.002000,2.5066216,4.4434476,-16.7778435,6.981638,-8.3160992,3.401814
12914,13:40:33.011000,2.6095676,5.144918,-16.1553783,6.981638,-8.3160992,3.401814
12915,13:40:33.021000,2.6287205,5.281382099999999,-14.2784052,8.408617999999999,-8.5286798,2.6773283
12916,13:40:33.030000,3.3134327000000003,4.6373695999999995,-11.4246387,8.408617999999999,-8.5286798,2.6773283
12917,13:40:33.039000,4.7977738,4.852837999999999,-9.782286599999999,7.8331833,-8.4199457,2.4415345
12918,13:40:33.050000,4.3045893,4.4434476,-8.6474848,6.8020439,-8.212251700000001,2.1837497000000003
12919,13:40:33.059000,2.7244842,1.8697912,-7.5773225,5.5021238,-7.870167299999999,1.3004392
12920,13:40:33.069000,1.3885771999999998,-0.4931844,-6.8064227,4.4624319,-7.084595200000001,0.20088270000000003
12921,13:40:33.082000,-0.32320340000000003,-0.44530240000000004,-5.0587306,3.8784449,-6.6130075,-1.0807114
12922,13:40:33.089000,-1.5657406,1.3215424999999998,-2.8609481,3.5717909,-6.393096,-2.2865584
12923,13:40:33.102000,-1.6878396,2.1139894,-1.7668449000000002,3.0476688999999997,-5.7565751,-4.0214143
12924,13:40:33.108000,-1.6351695,2.2097533,-0.9456690000000001,2.049516,-5.2483358,-4.9206071
12925,13:40:33.117000,-1.8985202,1.8554264999999999,-0.7182297,2.049516,-5.2483358,-4.9206071
12926,13:40:33.127000,-3.0045941000000003,1.9248554,-0.8906046999999999,0.6616313,-4.4016771,-5.7745957
12927,13:40:33.136000,-4.508088099999999,1.601652,-2.9926236,-2.7494373,-3.0064623,-6.2156401
12928,13:40:33.149000,-5.2239237,0.8810283000000001,-4.9366317,-4.4061022,-3.0834312,-6.086136799999999
12929,13:40:33.156000,-5.2287116,-0.31362690000000004,-4.8911432999999995,-4.4061022,-3.0834312,-6.086136799999999
12930,13:40:33.165000,-3.9694157,-2.0732894,-3.1051458999999997,-5.3077383000000005,-3.6393182,-6.1814318
12931,13:40:33.176000,0.5362781,-5.0204248,1.5729228000000002,-5.5068803,-4.5067458,-6.466095
12932,13:40:33.185000,17.275816,-10.6321926,6.0427051,-5.2344346,-5.5207815,-6.7104406
12933,13:40:33.197000,5.8176599,-8.9515352,-0.8092054,-3.1000736,-2.2722029999999998,-5.421515900000001
12934,13:40:33.204000,2.5832324,-4.3668360999999996,3.6653652,-3.1000736,-2.2722029999999998,-5.421515900000001
12935,13:40:33.216000,1.2592959,-3.1841512,0.8451169,-0.3780604,-2.6875911,-4.4649019
12936,13:40:33.224000,2.5592916,-3.6007245,-1.4173065,-0.3780604,-2.6875911,-4.4649019
12937,13:40:33.234000,4.4530234,-4.2926192,-1.5394055,0.9792811,-2.208673,-4.385489499999999
12938,13:40:33.245000,6.3156323,-4.6182165,-0.4788198,1.54372,-1.8641453000000001,-4.5162148
12939,13:40:33.252000,7.3403072,-3.9981451,1.5992579,1.54372,-1.8641453000000001,-4.5162148
12940,13:40:33.263000,8.810282699999998,-5.2430763,2.8058836,1.8906912,-1.4426486,-4.370828599999999
12941,13:40:33.281000,9.246008900000001,-11.7909365,3.6605771000000003,1.8809173,-1.1909723,-4.027523
12942,13:40:33.290000,7.335518400000001,-12.1644163,4.869597,0.563893,-1.1763117,-3.2517247000000005
12943,13:40:33.300000,6.600530099999999,-12.4564962,6.583771700000001,-0.06651939999999999,-1.3045933,-2.4478266
12944,13:40:33.314000,6.289297599999999,-13.284853899999998,7.6252046,-0.6847144000000001,-1.3888927,-1.5364165
12945,13:40:33.321000,6.0139761,-14.261646300000002,8.4152575,-0.6847144000000001,-1.3888927,-1.5364165
12946,13:40:33.332000,5.1137948,-15.049304999999999,6.0498877,-0.6004151,-0.9502917,-1.2199886
12947,13:40:33.340000,8.700155300000002,-14.654277800000003,7.369036200000001,-0.6004151,-0.9502917,-1.2199886
12948,13:40:33.349000,11.7406597,-11.6377144,5.1712537,0.6775138,-0.2905578,-0.7813876999999999
12949,13:40:33.358000,14.8769302,-8.633119599999999,4.8456559,0.6775138,-0.2905578,-0.7813876999999999
12950,13:40:33.368000,16.4187298,-6.978797900000001,4.0723619,1.309148,-0.0181121,-0.8033789000000001
12951,13:40:33.380000,17.45298,-6.045099700000001,3.6940942000000003,0.5394584,0.7833424,-1.1711194999999999
12952,13:40:33.388000,19.6866741,-5.3364458,2.52338,0.5394584,0.7833424,-1.1711194999999999
12953,13:40:33.399000,22.9115257,-5.4753041,1.5561641000000002,-1.7635016,1.6312227,-2.4722612
12954,13:40:33.408000,26.131588,-9.2819214,0.11731079999999999,-1.7635016,1.6312227,-2.4722612
12955,13:40:33.418000,30.333232899999995,-16.1290436,-0.42854369999999997,-2.8190758,2.1675617999999996,-3.3140328
12956,13:40:33.430000,28.118690500000003,-18.6332703,-1.8817616999999998,-4.3046985,3.0398767,-4.5492015
12957,13:40:33.437000,25.451664,-18.9133797,-0.8642696,-4.3046985,3.0398767,-4.5492015
12958,13:40:33.447000,23.4358311,-15.619099599999998,0.8020231,-4.6211267,2.9286993,-4.6958089
12959,13:40:33.456000,18.5231419,-8.695366900000002,0.45248469999999996,-4.6211267,2.9286993,-4.6958089
12960,13:40:33.467000,12.4301615,-3.7611291,-1.1084677,-6.1849403,3.526125,-2.5321259
12961,13:40:33.475000,6.169592400000001,-2.7723663,-1.9368258999999999,-6.1849403,3.526125,-2.5321259
12962,13:40:33.485000,1.9320377,-3.9215337999999997,-2.4276164000000002,-6.666301700000001,4.308032,-1.6341549
12963,13:40:33.498000,-2.0780778000000004,-4.1609435,-5.654861,-7.8978052,5.039847900000001,0.737222
12964,13:40:33.505000,-6.6555943,-4.675674900000001,-10.0911264,-7.8978052,5.039847900000001,0.737222
12965,13:40:33.515000,-7.512682000000001,-8.8174658,-12.118928,-9.118312800000002,4.8040543,1.8526610000000001
12966,13:40:33.528000,3.4091966,-16.7203865,-7.3067894,-9.521483400000001,2.9763467,1.1428361999999999
12967,13:40:33.534000,6.657988499999999,-17.4793148,-12.7773046,-8.6259556,2.5658455,1.3932908000000002
12968,13:40:33.547000,2.0134369999999997,-12.841945599999999,-10.5244579,-8.6259556,2.5658455,1.3932908000000002
12969,13:40:33.553000,1.6543223000000002,-9.794258099999999,-12.6576004,-7.3223705,2.9177036,2.6675546000000003
12970,13:40:33.562000,1.8482443,-7.421706200000001,-14.934388199999999,-7.0645852,1.1852913,4.639425800000001
12971,13:40:33.572000,0.6009188,-5.314899,-17.3787613,-7.0645852,1.1852913,4.639425800000001
12972,13:40:33.582000,0.6081011,-5.4489684,-17.7019653,-7.927125900000001,0.5170054000000001,5.5679402
12973,13:40:33.595000,-0.43333190000000005,-5.6165557,-18.408226000000003,-8.882518800000001,-0.33820520000000004,6.3144169
12974,13:40:33.602000,-1.3430893,-6.0810108,-17.5966263,-8.882518800000001,-0.33820520000000004,6.3144169
12975,13:40:33.612000,0.0526702,-5.0156369000000005,-15.5903711,-8.472017300000001,-0.5703338000000001,6.639397099999999
12976,13:40:33.621000,0.7948408,-2.3701577,-13.794796900000001,-7.427439200000001,-1.0333693000000002,6.473241799999999
12977,13:40:33.631000,-0.22265120000000002,0.5626131999999999,-12.35355,-6.1910491,-1.4695268,6.3412948
12978,13:40:33.643000,0.9456690000000001,1.9224613000000002,-12.6312647,-4.9522152,-1.7395289,6.0505233
12979,13:40:33.650000,2.082866,1.1036795,-12.822792999999999,-3.6437432999999997,-2.2196686000000003,5.7255435
12980,13:40:33.662000,3.6653652,0.7708998,-13.076566699999999,-0.6908231,-3.2324824,5.2001995999999995
12981,13:40:33.670000,4.505693900000001,1.4388534,-12.954467800000002,-0.6908231,-3.2324824,5.2001995999999995
12982,13:40:33.680000,5.451363099999999,0.9552454,-12.4804373,0.6323099,-3.6161053,4.964405999999999
12983,13:40:33.689000,6.7202349,0.35432659999999994,-11.017642,1.6634494999999998,-3.9679635,4.7481599
12984,13:40:33.698000,7.7473035,1.9344318,-8.2452765,2.3073007999999997,-4.3014956,4.6821861
12985,13:40:33.710000,4.295013,3.9694157,-3.8544991000000004,1.7184273,-4.2868347,4.6198783
12986,13:40:33.718000,7.0841379,2.4802864,-1.9080968,1.7184273,-4.2868347,4.6198783
12987,13:40:33.728000,4.3716245,3.0740228,-1.6543223000000002,0.6323099,-4.1695485,4.354763
12988,13:40:33.736000,5.8200541,-3.6797296999999998,-5.8846945999999996,-0.2485571,-3.9215376,4.0969782
12989,13:40:33.746000,6.6196828,-5.9230003,-9.1191216,-0.6847144000000001,-4.1878743,3.3932618999999997
12990,13:40:33.758000,6.5789833,-5.6141615,-10.6704979,2.8815138,-5.6368456,1.7256011000000002
12991,13:40:33.777000,4.2303724,-3.6917002,-9.4399309,5.8429861,-5.449921099999999,0.36581620000000004
12992,13:40:33.786000,0.1580105,-1.817121,-6.6675649,5.8429861,-5.449921099999999,0.36581620000000004
12993,13:40:33.796000,-6.849516400000001,-1.7692389,-2.7771543999999997,6.5625849,-4.5727191,-0.2328312
12994,13:40:33.811000,-9.9714212,-2.5305624,0.0023940999999999997,5.9969239000000005,-2.3039680000000002,-1.3238356000000002
12995,13:40:33.815000,-14.120393799999999,-6.866274799999999,2.8106720000000003,5.9969239000000005,-2.3039680000000002,-1.3238356000000002
12996,13:40:33.827000,-12.6456299,-11.2546577,4.0388446,4.3866844,-2.0168614,-3.5009574999999997
12997,13:40:33.834000,-8.7528248,-11.5587091,1.9200671999999999,4.3866844,-2.0168614,-3.5009574999999997
12998,13:40:33.844000,-6.282115,-9.8325644,-0.09815800000000001,3.42274,-1.8421543000000002,-3.4887402
12999,13:40:33.854000,-3.8257697,-11.269022900000001,-3.8209815000000003,2.2401058999999997,-2.0425179,-3.3506845999999997
13000,13:40:33.863000,-1.6447458,-13.574540099999998,-5.9684882,0.8546646000000001,-2.2880854999999998,-3.7501903
13001,13:40:33.875000,-1.3143603000000001,-13.2728834,-7.3259419999999995,-0.8337655,-2.7853293,-4.359833200000001
13002,13:40:33.883000,-1.4675825,-10.67768,-7.4576173,-0.8337655,-2.7853293,-4.359833200000001
13003,13:40:33.894000,-0.8139936,-7.524652499999999,-6.966827400000001,0.5736668,-3.5660144999999996,-3.5657091
13004,13:40:33.902000,0.2082866,-4.9821196,-5.9182119,0.5736668,-3.5660144999999996,-3.5657091
13005,13:40:33.912000,1.3622421,-4.010115600000001,-4.3476834,2.8106534,-4.4175596,-3.160095
13006,13:40:33.925000,2.2408764,-4.0316625,-3.0812049,3.8613408,-4.595932,-3.0379218999999997
13007,13:40:33.931000,2.5090156,-3.1889396,-2.7125139,3.8613408,-4.595932,-3.0379218999999997
13008,13:40:33.943000,2.0493486,-2.2743938,-2.6766026000000003,4.7275472,-4.5653892,-2.7324896
13009,13:40:33.951000,2.2600293,-0.8163876999999999,-1.6064403,4.7275472,-4.5653892,-2.7324896
13010,13:40:33.960000,2.1714474999999998,1.1036795,0.3279915,3.3653185,-4.1683269,-2.3537536
13011,13:40:33.973000,1.5609524,2.279182,2.0637131,3.3653185,-4.1683269,-2.3537536
13012,13:40:33.979000,0.8546931999999999,3.1075404,3.2104863999999997,2.1252632,-3.6515355000000005,-1.8174143
13013,13:40:33.992000,-0.17955739999999998,2.9399533,3.7467644,-1.2955792,-2.8305333,-0.22305740000000002
13014,13:40:33.999000,-0.8714519000000001,1.4173065,3.1937277,-1.2955792,-2.8305333,-0.22305740000000002
13015,13:40:34.010000,-1.1611378,-1.6878396,2.0373781,-4.0249224,-2.1854601000000002,-0.0324676
13016,13:40:34.018000,-0.31362690000000004,-5.1760416,1.235355,-4.6028004000000005,-2.1915689,-0.0312459
13017,13:40:34.027000,1.9080968,-10.194071800000001,1.4197004999999998,-4.6028004000000005,-2.1915689,-0.0312459
13018,13:40:34.038000,1.9511904999999998,-14.510633499999999,0.6320420999999999,-4.943663099999999,-2.3455067,0.31450359999999994
13019,13:40:34.047000,-1.8817616999999998,-15.7172585,1.2856309,-5.4604545,-2.2172251,0.8068605
13020,13:40:34.057000,-3.1793633,-16.1074963,0.7708998,-5.5814056,-2.0974956000000002,0.913151
13021,13:40:34.067000,-1.8841558,-16.0739784,0.0215469,-4.727417,-2.3772717,0.25097359999999996
13022,13:40:34.076000,0.48600200000000005,-12.868281399999999,-0.4165732,-3.3981757000000004,-2.6704867,-0.36111279999999996
13023,13:40:34.089000,3.9358983,-11.5180092,0.8522992,-1.7903796000000003,-2.6265044,-0.43930349999999996
13024,13:40:34.096000,6.511948599999999,-12.365519500000001,1.8051505,-0.21190520000000002,-2.5507574,-0.9060041999999999
13025,13:40:34.108000,9.238826800000002,-13.7397327,2.6813905,0.7593696999999999,-1.8873581999999998,-2.0935252
13026,13:40:34.116000,11.855577499999999,-13.713398000000002,2.9231944,0.7593696999999999,-1.8873581999999998,-2.0935252
13027,13:40:34.126000,14.864958800000002,-11.838817599999999,1.8937321,-0.6040803000000001,-1.4536443000000001,-2.6335297000000004
13028,13:40:34.135000,17.5750771,-10.9434252,1.6998101000000003,-0.6040803000000001,-1.4536443000000001,-2.6335297000000004
13029,13:40:34.144000,19.3203754,-11.8220596,0.23462170000000002,-1.3835437,-0.9869435,-3.1515429
13030,13:40:34.156000,22.4494648,-14.8529892,-2.2696054,-2.949801,1.0118058,-4.2229996
13031,13:40:34.164000,25.0686073,-17.761817899999997,-4.6086402,-2.949801,1.0118058,-4.2229996
13032,13:40:34.174000,24.580211600000002,-17.938982,-5.3292642,-4.9974194,3.6238632000000006,-4.2950816
13033,13:40:34.182000,21.5325241,-16.1649551,-5.774566200000001,-4.9974194,3.6238632000000006,-4.2950816
13034,13:40:34.193000,17.500862100000003,-13.6966391,-6.3419676,-5.969915900000001,4.8956838,-3.7355294000000003
13035,13:40:34.206000,13.2393656,-11.4437923,-7.0961084,-7.5752683,6.5425754000000005,-1.9017136000000001
13036,13:40:34.212000,8.532568,-9.8565054,-8.1614828,-8.464687300000001,6.990950099999999,-0.5565895000000001
13037,13:40:34.226000,3.4618669,-10.0504274,-9.787075999999999,-9.4274101,7.2304087,1.0585368999999998
13038,13:40:34.231000,-0.35672070000000006,-11.3743629,-12.1548386,-9.4274101,7.2304087,1.0585368999999998
13039,13:40:34.241000,-2.8944654,-13.5314465,-16.2463531,-10.526966999999999,6.8235731,4.8043594
13040,13:40:34.251000,-1.1204382,-16.6725044,-15.702894199999998,-10.526966999999999,6.8235731,4.8043594
13041,13:40:34.259000,-0.7804762,-22.645780600000002,-17.4721317,-11.3125391,6.661082700000001,6.2973127
13042,13:40:34.273000,-4.1681261,-23.8069172,-15.4275723,-11.5849848,6.7844777,6.4915676
13043,13:40:34.280000,-0.5458545,-18.958868,-12.343973199999999,-11.5849848,6.7844777,6.4915676
13044,13:40:34.290000,2.7388489,-11.4605513,-12.5594416,-7.7560844,3.9598391000000004,7.7316232000000005
13045,13:40:34.299000,3.4594727,-3.8784398999999996,-14.7045546,-7.7560844,3.9598391000000004,7.7316232000000005
13046,13:40:34.309000,3.3780732,0.895393,-16.026096300000003,-5.890503400000001,2.5756195,7.757279400000001
13047,13:40:34.321000,2.1379302000000004,6.2414155,-14.838624,-2.4110181,-0.5739989999999999,7.328452099999999
13048,13:40:34.328000,1.9966784,13.639181099999998,-20.979488399999997,-2.4110181,-0.5739989999999999,7.328452099999999
13049,13:40:34.338000,0.8738461,12.1476574,-22.763090100000003,-0.948608,-1.5464957000000001,6.873969099999999
13050,13:40:34.347000,0.48839620000000006,8.6570606,-22.193296399999998,0.8705470999999999,-2.43958,5.8941422
13051,13:40:34.357000,0.023941,9.016176199999999,-21.0225811,3.9431964999999995,-3.3289989999999996,5.593596499999999
13052,13:40:34.374000,0.3854499,10.031273800000001,-20.8669643,6.336565,-4.649688200000001,5.6840043
13053,13:40:34.377000,-0.8834224,7.486347200000001,-21.2763557,4.7593122,-5.3265262,5.6082573
13054,13:40:34.389000,-1.9799197,6.966827400000001,-21.9323387,2.595629,-6.229384400000001,5.5398402
13055,13:40:34.405000,-1.0007333,2.7460313,-17.5080433,2.595629,-6.229384400000001,5.5398402
13056,13:40:34.414000,2.0948365,6.9117632,-11.314511300000001,-0.6468408,-7.854284799999999,4.6858515999999995
13057,13:40:34.424000,1.3598481000000002,4.2543135,-6.4042139,-1.7586147,-7.826184700000001,4.654086599999999
13058,13:40:34.436000,-2.2289058999999996,-2.3510051,-2.640691,-5.2881908,-6.5213776,4.1458473
13059,13:40:34.444000,-1.4675825,-4.2255845,-3.4786254999999997,-5.2881908,-6.5213776,4.1458473
13060,13:40:34.454000,-0.2250453,-5.5543089000000005,-7.2684841,-3.9064152,-6.9624219,3.6400511
13061,13:40:34.464000,0.23222759999999998,-7.7999735,-12.4876194,-1.6132289,-7.5525174,3.2527627999999997
13062,13:40:34.473000,-0.6535890000000001,-8.1183891,-16.9789486,0.6200926,-7.7919765,2.5966942000000004
13063,13:40:34.484000,0.8092054,-5.168858999999999,-19.1432133,2.6090682000000003,-7.8347368,1.7329314999999998
13064,13:40:34.493000,4.2399492,-1.8003622,-17.3907337,3.7587154000000003,-7.947135899999999,0.5588495
13065,13:40:34.503000,5.5279741,0.9241222,-14.070117999999999,1.9139041,-7.697903200000001,-2.9328532000000003
13066,13:40:34.513000,5.3579931,3.8281641000000004,-9.6697655,1.9139041,-7.697903200000001,-2.9328532000000003
13067,13:40:34.522000,3.1769691000000004,4.6589160000000005,-5.1209769,0.19615239999999998,-7.2275372,-3.3299152999999997
13068,13:40:34.535000,0.7900524999999999,1.3933655,0.6559831,-0.9461646,-6.692419999999999,-3.3335805
13069,13:40:34.542000,-1.4843413,-1.9057026000000001,5.3771458,-1.1990626,-5.8286572,-4.0116404999999995
13070,13:40:34.554000,-4.0915146,-2.8920712,5.9373651,-2.2436414,-4.1304536,-4.8069863
13071,13:40:34.561000,-5.3053231,-3.7491589,4.7834096,-2.2436414,-4.1304536,-4.8069863
13072,13:40:34.571000,-5.913424,-6.334785500000001,1.2257784999999999,-4.1189957,-3.5916707999999997,-4.9963541
13073,13:40:34.581000,-5.796113,-10.984125099999998,-3.2583685,-6.189826999999999,-2.9429324,-5.5827847
13074,13:40:34.589000,-5.4681215,-13.301612900000002,-6.399426,-7.994321799999999,-2.2893071,-6.088580599999999
13075,13:40:34.602000,-0.07421710000000001,-11.7358723,-4.3572593,-8.597855599999999,-1.7309768,-5.4508376
13076,13:40:34.610000,2.2504527999999997,-8.7695837,-4.096303,-8.597855599999999,-1.7309768,-5.4508376
13077,13:40:34.623000,1.7381157999999999,-7.361853599999999,0.3615089,-4.5759225,-0.3773006,-4.7275739
13078,13:40:34.629000,2.6287205,-7.8909497,2.2241178,-4.5759225,-0.3773006,-4.7275739
13079,13:40:34.638000,4.9318433,-7.711391900000001,1.6591103999999999,-1.3493353000000001,-0.4945866,-4.2804208
13080,13:40:34.651000,4.4913292,-7.055409,0.6990768,0.043436300000000004,-0.6143161,-4.2242212
13081,13:40:34.658000,3.9454749,-6.6819296,0.1532223,0.043436300000000004,-0.6143161,-4.2242212
13082,13:40:34.670000,3.6821237,-5.0012726999999995,-2.0685015,1.0733542,-0.8818749,-4.0715050999999995
13083,13:40:34.677000,4.5631518,-2.8801007000000003,-4.4290824,1.3751214,-1.170203,-3.7355294000000003
13084,13:40:34.687000,5.6093736,0.2513804,-5.1712537,0.08130989999999999,-2.0046442,-3.6805517999999995
13085,13:40:34.696000,6.035522900000001,3.6031184,-3.6007245,0.08130989999999999,-2.0046442,-3.6805517999999995
13086,13:40:34.706000,5.065913200000001,6.006794,-0.3279915,-0.3951646,-1.8067241000000003,-3.5730394999999997
13087,13:40:34.719000,2.6215382000000003,1.9104908,2.8968594,-0.6981535,-0.8293405,-2.0177779
13088,13:40:34.726000,0.2082866,-3.3254032,1.8554264999999999,-0.6981535,-0.8293405,-2.0177779
13089,13:40:34.736000,-0.5003666,-6.808816900000001,-0.1364636,-2.3267187999999996,-0.5837728,-1.4728866000000003
13090,13:40:34.746000,0.0023940999999999997,-9.406414,-2.2504527999999997,-2.3267187999999996,-0.5837728,-1.4728866000000003
13091,13:40:34.755000,1.2497194999999999,-11.9992228,-1.6184107,-2.7946413,-1.034591,-1.384922
13092,13:40:34.767000,1.5394055,-12.523531,-1.1683203000000002,-3.2564549,-1.1421032,-1.9151527
13093,13:40:34.774000,2.279182,-9.552454,-2.2863643,-3.2564549,-1.1421032,-1.9151527
13094,13:40:34.785000,5.039578,-6.8638811,-3.6869121,-2.6639161,-0.6240899999999999,-2.8192325
13095,13:40:34.794000,11.8148766,-6.0786166,-3.5887538999999995,-2.6639161,-0.6240899999999999,-2.8192325
13096,13:40:34.803000,17.0268307,-6.528707499999999,-3.5336897000000005,-1.526486,0.5561007,-3.9810972000000002
13097,13:40:34.816000,17.953346300000003,-6.1073461,-2.159477,-1.526486,0.5561007,-3.9810972000000002
13098,13:40:34.822000,18.152055700000002,-3.8161936,-0.5554309000000001,-1.4556258,1.31846,-4.1435870999999995
13099,13:40:34.834000,22.7056313,-2.0852599,-1.5394055,-1.9931866999999999,2.0576062,-3.927341
13100,13:40:34.842000,29.6676712,-2.8585539,-5.4753041,-2.867945,2.5878367,-3.9212325
13101,13:40:34.851000,36.086250299999996,-5.6572556,-8.9060469,-3.7500336,3.2463488999999996,-4.5345407
13102,13:40:34.861000,35.52842329999999,-8.9706879,-10.806962,-4.5148358,4.3642316,-5.211378599999999
13103,13:40:34.871000,27.6901455,-9.3226213,-10.9410315,-5.583849400000001,5.7912116,-5.105088200000001
13104,13:40:34.883000,20.632343300000002,-7.3857946,-11.994435300000001,-9.2746944,7.8266129,-2.183933
13105,13:40:34.891000,13.955202100000001,-4.208825599999999,-13.294429800000001,-9.2746944,7.8266129,-2.183933
13106,13:40:34.901000,8.4846859,-1.7644508,-15.734017399999999,-14.2361374,8.158923099999999,2.0139294
13107,13:40:34.919000,6.595742200000001,-5.872724099999999,-22.8181553,-14.2361374,8.158923099999999,2.0139294
13108,13:40:34.931000,5.891877200000001,-9.6769466,-25.980760600000004,-17.3967514,6.2957859,6.0114279
13109,13:40:34.939000,4.6493402,-13.469200099999998,-28.8153725,-17.5897846,5.610395400000001,7.6289978000000005
13110,13:40:34.952000,5.8799067,-14.960722899999999,-27.5632572,-13.9307051,4.0746818,8.5782814
13111,13:40:34.958000,7.9867134,-13.057414999999999,-25.6384048,-13.9307051,4.0746818,8.5782814
13112,13:40:34.968000,8.5373564,-9.767923399999999,-22.3608818,-10.382803,3.0777502,8.795749699999998
13113,13:40:34.981000,8.467927,-5.8966651,-19.760892899999998,-7.0584769,2.2665219,9.0462036
13114,13:40:34.987000,6.6771417,-1.4220946,-19.7106133,-4.678547900000001,1.5518103,9.086521099999999
13115,13:40:35.004000,4.488935,2.0637131,-20.4551792,-3.7720248999999995,-0.09874630000000001,9.6949425
13116,13:40:35.006000,1.8673970000000002,4.1034851,-19.8997478,-3.7720248999999995,-0.09874630000000001,9.6949425
13117,13:40:35.015000,0.4093909,6.875851600000001,-20.6467075,-3.6119782999999996,-3.2605822,9.9282923
13118,13:40:35.025000,1.2545078,6.2150807,-21.8988228,-2.6626945,-4.5568366,9.374849300000001
13119,13:40:35.035000,3.9718099000000002,2.4276164000000002,-23.349645600000002,-1.6816457999999999,-5.6063023,8.566063900000001
13120,13:40:35.045000,5.3053231,-0.3423561,-24.309677100000002,-0.6431756999999999,-6.3918743,7.9832993000000005
13121,13:40:35.054000,6.693900099999999,-0.8307523000000001,-24.83638,-0.6431756999999999,-6.3918743,7.9832993000000005
13122,13:40:35.063000,8.803100599999999,1.5920756,-24.486841199999997,1.2260703000000002,-7.7577682,6.6161842
13123,13:40:35.074000,9.5644236,4.4147182,-22.8325195,1.2260703000000002,-7.7577682,6.6161842
13124,13:40:35.083000,9.8253813,5.9924288,-20.0266361,1.602363,-8.3136549,5.9136896
13125,13:40:35.098000,10.1533728,6.555042299999999,-17.352428399999997,0.550454,-9.0234804,4.8202419
13126,13:40:35.103000,13.311188699999999,4.4626002,-15.1809797,0.550454,-9.0234804,4.8202419
13127,13:40:35.114000,15.3533554,2.2025707000000003,-12.7078762,-1.0585636999999999,-8.8927555,3.8587407999999996
13128,13:40:35.123000,15.772322699999998,1.2162021,-11.8292418,-1.0585636999999999,-8.8927555,3.8587407999999996
13129,13:40:35.132000,16.4713993,0.316021,-11.685596499999999,-0.000546,-6.863461999999999,2.164202
13130,13:40:35.143000,9.219674099999999,1.0294625,-13.5314465,-0.000546,-6.863461999999999,2.164202
13131,13:40:35.152000,3.8209815000000003,-0.2968683,-16.4785824,2.1496977999999998,-5.7553535,1.1636056000000001
13132,13:40:35.164000,2.0445604,-0.8427228000000001,-18.8870468,8.253458,-5.236118299999999,-1.4777735
13133,13:40:35.172000,-1.7405096999999998,-1.5010998,-17.9485588,8.253458,-5.236118299999999,-1.4777735
13134,13:40:35.183000,-5.8224478,-2.5185918999999997,-15.056487099999998,11.357873,-6.1487503,-3.7123168
13135,13:40:35.191000,-8.405680699999998,-2.3893106,-11.3049335,11.357873,-6.1487503,-3.7123168
13136,13:40:35.200000,-9.104758300000002,-2.1020187999999997,-7.7808208,9.619351400000001,-7.071155999999999,-4.5589752
13137,13:40:35.212000,-8.6833963,-1.4077301000000002,-6.1049519,9.619351400000001,-7.071155999999999,-4.5589752
13138,13:40:35.220000,-7.5797167000000005,-1.1898671,-4.354865599999999,7.5216422000000005,-7.171337599999999,-4.5345407
13139,13:40:35.231000,-6.713053200000001,-0.509943,-1.8793674999999999,2.6102898,-6.776719099999999,-3.6573388999999996
13140,13:40:35.239000,-5.757807700000001,0.8451169,1.5250409,2.6102898,-6.776719099999999,-3.6573388999999996
13141,13:40:35.249000,-4.464994,1.6615044999999997,2.183418,0.23280429999999996,-6.4053135,-2.6982812999999997
13142,13:40:35.261000,-3.1602101,1.7476921000000003,1.1826848,-1.739067,-6.110876599999999,-1.7819841
13143,13:40:35.268000,-0.9911568999999999,1.4244888,-0.48839620000000006,-3.243016,-5.843318,-1.3189486000000001
13144,13:40:35.280000,0.8522992,0.5674013000000001,-3.5743894999999997,-3.392067,-5.6588368,-1.8015318
13145,13:40:35.288000,3.4714432,-0.5841601,-6.854304300000001,-3.392067,-5.6588368,-1.8015318
13146,13:40:35.298000,5.906241400000001,-1.1491673999999998,-8.7480373,-1.323679,-5.6906018,-2.708055
13147,13:40:35.306000,6.246203400000001,-0.5554309000000001,-9.080817199999998,-1.323679,-5.6906018,-2.708055
13148,13:40:35.316000,7.230177900000001,0.9169398000000001,-7.361853599999999,-0.47824220000000006,-5.6637235,-2.6481903
13149,13:40:35.329000,8.022625,1.5777111000000001,-4.3452892,-0.6663885,-4.949011799999999,-1.4716648
13150,13:40:35.336000,8.5469332,1.1850789,-0.6320420999999999,-0.6663885,-4.949011799999999,-1.4716648
13151,13:40:35.348000,9.8493223,-1.0557975,1.6638986,-2.8716102,-4.0510411,-0.8046007
13152,13:40:35.355000,11.122983,-4.455418099999999,2.9806529999999998,-2.8716102,-4.0510411,-0.8046007
13153,13:40:35.365000,10.0145149,-6.9548569,2.932771,-3.8917544,-3.7028482000000005,-0.9304388000000001
13154,13:40:35.375000,8.901259399999999,-7.5557756,3.2823095,-4.489179599999999,-3.5843403,-0.9854166
13155,13:40:35.384000,8.3458281,-7.1176553,2.9902293999999996,-4.637009099999999,-3.6661962999999997,-0.9182215
13156,13:40:35.397000,8.0752954,-6.9069747999999995,2.8992536,-4.3865547,-4.0620365,-0.4087602
13157,13:40:35.404000,7.3762178,-5.7889309,0.2992623,-4.3865547,-4.0620365,-0.4087602
13158,13:40:35.413000,7.055409,-5.4729095,0.22025709999999998,-4.0676832,-4.0913582,-0.0691195
13159,13:40:35.432000,2.640691,-6.8519106,3.5265076,-1.9663085999999999,-2.6142871,0.5209758
13160,13:40:35.445000,1.7045983,-8.2117586,4.354865599999999,-1.9760826,-2.2636509,0.5075367999999999
13161,13:40:35.452000,2.4515569,-9.4997845,5.4465747,-1.9760826,-2.2636509,0.5075367999999999
13162,13:40:35.462000,4.374018700000001,-11.053553599999999,5.022819,-2.362149,-2.2355511000000003,0.4036898
13163,13:40:35.471000,6.1983213,-13.0382624,4.687645400000001,-2.7237809,-2.0376308,0.0176233
13164,13:40:35.481000,6.9500684999999995,-12.7198467,3.5456602999999998,-2.6834637999999997,-1.5623782,-0.2536006
13165,13:40:35.493000,6.5670128,-11.1205893,-0.6176775,-3.0414307000000003,-0.9515134,-0.5578113
13166,13:40:35.499000,5.7793546,-11.058342,-3.1099343,-3.0414307000000003,-0.9515134,-0.5578113
13167,13:40:35.511000,6.0427051,-12.3320026,-2.8489776,-3.3273153,-0.3308749,-0.9951904
13168,13:40:35.519000,8.151906,-11.992040600000001,-1.1443793,-3.2405725,0.4204888,-1.6805806
13169,13:40:35.529000,10.3808117,-9.0879993,-1.601652,-3.0108874,1.3758812,-2.4233921
13170,13:40:35.546000,10.7159863,-6.581377499999999,-5.5040331,-4.053022400000001,4.549934400000001,-3.4386492
13171,13:40:35.547000,10.186889599999999,-8.168664900000001,-10.8859673,-4.053022400000001,4.549934400000001,-3.4386492
13172,13:40:35.557000,13.9264717,-14.750042,-12.8802509,-5.6498227,6.2982292,-3.7208687999999994
13173,13:40:35.568000,19.3993816,-20.6275539,-13.416528699999999,-8.4500265,8.1002798,-3.5986958
13174,13:40:35.578000,17.105836899999996,-22.248359699999998,-14.989452400000001,-8.454913099999999,9.5626898,-2.5235738999999997
13175,13:40:35.591000,13.3040066,-19.768074,-14.927206,-8.454913099999999,9.5626898,-2.5235738999999997
13176,13:40:35.597000,9.1023626,-12.442131,-15.8800573,-7.4982996,10.8051891,-1.254197
13177,13:40:35.612000,5.6572556,-7.1775079,-16.093132,-6.1030846,10.8601665,0.109253
13178,13:40:35.617000,5.3986925999999995,-5.5279741,-16.6629276,-5.405476999999999,10.2040977,1.4788117
13179,13:40:35.628000,5.451363099999999,-6.4425197,-19.447263699999997,-7.3480267999999995,7.8595996,3.8465235
13180,13:40:35.636000,5.4609389,-9.080817199999998,-21.266780899999997,-7.3480267999999995,7.8595996,3.8465235
13181,13:40:35.646000,5.281382099999999,-8.7647963,-17.5176201,-8.3693924,6.1430697,4.6345391
13182,13:40:35.656000,3.4522904999999997,-7.07935,-15.2216797,-8.0529642,3.4344952000000006,5.9332370999999995
13183,13:40:35.665000,3.3708911,-6.8782454,-12.7605457,-8.0529642,3.4344952000000006,5.9332370999999995
13184,13:40:35.677000,2.1810241,-8.1854239,-13.471593900000002,-6.9851732,2.5328588,6.2117915
13185,13:40:35.685000,2.5999912999999997,-7.8215202999999995,-16.3277531,-5.7377872000000005,1.7961561999999998,6.877634
13186,13:40:35.694000,2.3318522,-6.176775,-19.6723099,-4.6699958,0.9678235999999999,7.753613900000001
13187,13:40:35.705000,-0.2058925,-3.7491589,-22.7415447,-3.653517,0.2323424,8.5843906
13188,13:40:35.714000,-2.8537657000000003,-0.3902381,-25.518697699999997,-0.3927211,-0.5984335999999999,9.7975674
13189,13:40:35.726000,-5.216741099999999,1.8482443,-25.4995461,1.8809173,-0.7132761,10.0944481
13190,13:40:35.733000,-4.5176644,4.1681261,-22.4710102,1.8809173,-0.7132761,10.0944481
13191,13:40:35.744000,-2.8944654,6.9596448,-18.2909145,6.1154318,-0.6815111999999999,10.1787472
13192,13:40:35.753000,-2.9040418,8.5469332,-12.4205837,6.1154318,-0.6815111999999999,10.1787472
13193,13:40:35.762000,-0.4381201,5.0060606,-17.0914707,5.817329900000001,-1.0663559,9.9307356
13194,13:40:35.776000,-0.0263351,1.2425373,-18.8774681,1.4191036,-3.7993648,8.993669500000001
13195,13:40:35.782000,3.1913337999999998,-0.629648,-19.164760600000005,1.4191036,-3.7993648,8.993669500000001
13196,13:40:35.792000,3.9047748999999996,1.4819472,-16.849666600000003,0.46493290000000004,-5.3228612,8.3266048
13197,13:40:35.801000,3.5121427000000005,2.0637131,-13.3614655,-0.15937079999999998,-6.424861,7.8073702
13198,13:40:35.811000,3.9071693,1.4508239,-10.2371664,-0.5491024999999999,-7.2617459,7.018133199999999
13199,13:40:35.825000,3.7419762999999997,-0.5147311999999999,-8.5301743,-0.6382886999999999,-8.36619,4.9827318
13200,13:40:35.830000,1.1443793,-4.0508150999999994,-7.828702900000001,-0.6382886999999999,-8.36619,4.9827318
13201,13:40:35.841000,-1.1826848,-7.754486099999999,-7.701815600000001,0.8363386,-8.135282499999999,1.9956033
13202,13:40:35.850000,-3.5384779,-7.8861612999999995,-7.8550382,0.8363386,-8.135282499999999,1.9956033
13203,13:40:35.859000,-5.2335,-6.6747475000000005,-7.251725200000001,4.610261,-7.441339999999999,-1.3543788
13204,13:40:35.869000,-4.9629664,-6.246203400000001,-6.657988499999999,4.610261,-7.441339999999999,-1.3543788
13205,13:40:35.878000,-5.1928,-5.365175700000001,-4.4338708,5.982263099999999,-6.9538698000000005,-2.8583279
13206,13:40:35.890000,-5.5255799,-4.7786212,-2.1977827999999997,5.5461059,-6.005807900000001,-4.9279375
13207,13:40:35.898000,-5.317293599999999,-3.3062503,0.5745836999999999,5.5461059,-6.005807900000001,-4.9279375
13208,13:40:35.908000,-5.891877200000001,-1.64714,0.8475109000000001,-0.15937079999999998,-5.3668432,-5.0427799
13209,13:40:35.917000,-4.8145323,-0.6679536,1.2545078,-0.15937079999999998,-5.3668432,-5.0427799
13210,13:40:35.927000,-3.7635233,-0.339962,-0.2585627,-3.5301223,-5.3668432,-4.9523721
13211,13:40:35.939000,-1.5920756,-1.2808429,0.6152834,-8.189798399999999,-4.9477901,-5.0721016
13212,13:40:35.946000,2.863342,-3.7300057,2.8489776,-8.189798399999999,-4.9477901,-5.0721016
13213,13:40:35.956000,3.2104863999999997,-5.37954,1.3167541999999999,-9.099986999999999,-3.9618547,-4.5296535
13214,13:40:35.966000,1.5609524,-6.169592400000001,1.7022042000000002,-9.099986999999999,-3.9618547,-4.5296535
13215,13:40:35.976000,1.6638986,-9.2891026,0.411785,-6.952186099999999,-3.2593603,-3.2529464
13216,13:40:35.988000,1.9655551,-11.826848,-2.1499007000000003,-6.952186099999999,-3.2593603,-3.2529464
13217,13:40:35.995000,1.6615044999999997,-11.769389199999999,-4.8887496,-5.1904525999999995,-3.0113492,-2.2376892999999995
13218,13:40:36.006000,2.1427186000000003,-8.520597500000001,-6.286903400000001,-2.9290316,-2.8806243,-0.9023389999999999
13219,13:40:36.014000,2.7508194,-5.0683069000000005,-5.870329900000001,-2.9290316,-2.8806243,-0.9023389999999999
13220,13:40:36.024000,3.0117762000000003,-2.0493486,-3.8018289,-2.1019206,-2.3051896000000003,-0.3867691
13221,13:40:36.035000,3.6270595,0.9504572,-1.7907859,-2.1019206,-2.3051896000000003,-0.3867691
13222,13:40:36.043000,3.7515528,1.9727374,-0.3950263,-2.5075347000000003,-2.0156398,0.3022863
13223,13:40:36.063000,1.3646363000000001,-3.6031184,-2.3318522,-3.2821114000000002,-1.8800278000000001,0.9290335
13224,13:40:36.074000,0.9983392,-3.3349794999999998,-3.4451079,-6.1702794999999995,-1.8959103,1.5753284
13225,13:40:36.082000,0.0335174,-2.5760503,-5.4489684,-6.1702794999999995,-1.8959103,1.5753284
13226,13:40:36.092000,-0.47642559999999995,-0.8475109000000001,-6.8303633,-5.7732171999999995,-2.3186287999999995,0.7445523000000001
13227,13:40:36.106000,-0.9743982,1.2832369,-4.7091918,-5.7732171999999995,-2.3186287999999995,0.7445523000000001
13228,13:40:36.111000,-1.6208049,1.4077301000000002,-1.2162021,-5.1000442999999995,-2.3406198,0.49287609999999993
13229,13:40:36.123000,-0.7900524999999999,-0.8570873999999999,0.9528513000000001,-3.6376345000000003,-1.4805222,-0.7007536
13230,13:40:36.130000,1.5777111000000001,-4.352471400000001,1.7692389,-3.6376345000000003,-1.4805222,-0.7007536
13231,13:40:36.139000,1.3981537,-8.2740059,2.6622376,-4.1128868999999995,-1.3864491,-1.1344675
13232,13:40:36.150000,1.2808429,-12.3104563,3.7395822999999995,-4.727417,-1.0626906999999999,-1.123472
13233,13:40:36.159000,2.2336943,-13.6559391,0.9360925999999999,-4.6858783,-0.3638616,-0.8143744
13234,13:40:36.171000,3.4115907999999995,-13.1364202,-2.9184062,-4.527053400000001,0.9482759,-0.8119310000000001
13235,13:40:36.179000,5.702743099999999,-11.834030199999999,-7.3929772,-4.527053400000001,0.9482759,-0.8119310000000001
13236,13:40:36.189000,8.834223699999999,-12.9568624,-11.9369764,-3.2088075000000003,3.7509232000000003,-1.8308533
13237,13:40:36.198000,11.175653500000001,-16.2343845,-18.748188,-3.2088075000000003,3.7509232000000003,-1.8308533
13238,13:40:36.208000,14.0964527,-17.7905483,-26.5625267,-2.6578076,5.906054,-2.0031173
13239,13:40:36.220000,16.1074963,-16.1649551,-31.750537899999994,-3.2943287000000003,10.590164199999998,-1.2370927
13240,13:40:36.226000,14.1946106,-14.546544099999998,-34.2906761,-3.2943287000000003,10.590164199999998,-1.2370927
13241,13:40:36.237000,9.562029800000001,-14.6854019,-32.2748451,-5.405476999999999,12.2773724,0.13979629999999998
13242,13:40:36.247000,5.853571400000001,-15.262379600000001,-32.906887100000006,-8.0664034,12.8747988,1.8477740000000002
13243,13:40:36.256000,1.3957596,-19.6507626,-32.995468100000004,-10.529410400000002,12.164973300000002,4.1849422
13244,13:40:36.269000,-3.610301,-22.3249702,-30.840780300000002,-9.826915699999999,7.838830000000001,8.456109
13245,13:40:36.276000,-4.876779099999999,-17.8312473,-29.016475699999997,-9.826915699999999,7.838830000000001,8.456109
13246,13:40:36.288000,-2.4347985,-11.0248251,-26.9527645,-1.725628,2.6892402,8.891044599999999
13247,13:40:36.296000,0.0335174,-4.6804628,-20.5150318,-1.725628,2.6892402,8.891044599999999
13248,13:40:36.306000,1.3694245,0.3974204,-18.2023315,1.9077953999999997,0.6648345999999999,8.4707689
13249,13:40:36.314000,3.442714,2.6430849999999997,-17.615778,4.505192299999999,-0.7535933000000001,8.0871468
13250,13:40:36.324000,8.2021828,12.1141396,-16.7539024,6.543036900000001,-1.7578548999999999,7.614337
13251,13:40:36.336000,2.7005434,14.5896378,-20.2875919,8.2033672,-1.3216975,6.289982299999999
13252,13:40:36.344000,8.3554049,4.5966697,-18.8032513,8.2033672,-1.3216975,6.289982299999999
13253,13:40:36.353000,8.1830292,4.8480501,-17.019647600000003,9.9968662,-1.473192,5.1537738
13254,13:40:36.363000,4.3405008,3.270339,-18.829586,12.364578199999999,-1.7248681000000001,6.4072685
13255,13:40:36.372000,7.4935288,0.4093909,-20.426450699999997,12.9155779,-1.6515644,6.8434258
13256,13:40:36.386000,5.8009014,4.6445513,-19.3371353,12.165435800000001,-2.7779988999999996,5.8147297
13257,13:40:36.392000,4.0005388,12.274543800000002,-17.019647600000003,12.165435800000001,-2.7779988999999996,5.8147297
13258,13:40:36.403000,1.8386679,12.099775300000001,-15.2958965,9.877137199999998,-2.7193561,5.1281176
13259,13:40:36.411000,-1.0941031,12.7389994,-12.490013099999999,6.737292299999999,-2.0584004,3.6168382000000006
13260,13:40:36.422000,-5.626132,13.241760300000001,-9.8995981,1.8613696,-2.0571785,5.5496144
13261,13:40:36.431000,-7.3043957,11.1588936,-8.5014448,1.8613696,-2.0571785,5.5496144
13262,13:40:36.440000,-5.7506251,7.0721674,-7.5749283,-0.006654600000000001,-3.0162362999999996,6.2728782
13263,13:40:36.454000,-3.1721807,5.044365900000001,-7.1463852,-3.2222466,-4.4994154,4.665082
13264,13:40:36.460000,6.962039,3.7467644,1.6591103999999999,-3.2222466,-4.4994154,4.665082
13265,13:40:36.470000,-4.2591014000000005,0.1987102,-0.2082866,-4.8068295,-3.9227595,4.481823
13266,13:40:36.479000,-7.3977652,-5.1544943,-0.5602191,-4.8068295,-3.9227595,4.481823
13267,13:40:36.488000,-4.1130619,-7.3522773,-2.135536,-2.9485791,-5.6417327,2.0017118000000003
13268,13:40:36.500000,-2.6239324,-6.514342299999999,-4.2926192,-1.1941757,-6.0436816,1.062202
13269,13:40:36.507000,1.4053360000000001,-6.385061299999999,-3.3780732,-1.1941757,-6.0436816,1.062202
13270,13:40:36.520000,-0.9241222,-5.7314725,-2.4012811000000003,-0.6932666000000001,-5.572094,0.714009
13271,13:40:36.528000,-2.693361,-6.2509917999999995,-0.6607713000000001,-0.9156214,-5.145710500000001,-0.06789780000000001
13272,13:40:36.537000,-2.693361,-7.3857946,-2.0349839,-1.5655814,-5.2190142,-1.8357401999999998
13273,13:40:36.547000,-2.0254076000000003,-6.459278599999999,-3.7778878,-1.5655814,-5.2190142,-1.8357401999999998
13274,13:40:36.556000,-1.3191483999999998,-4.948602200000001,-5.037183799999999,-2.4378963,-5.310643700000001,-3.6304607000000004
13275,13:40:36.571000,0.10294629999999999,-4.0149035,-4.9438138,-2.6260426,-4.8292823,-7.0781813
13276,13:40:36.587000,10.483758,-12.925739300000002,-5.3555989,-2.9009316000000003,-2.7156909,-9.337159199999999
13277,13:40:36.594000,10.2036486,-17.421855899999997,-3.8185875,-2.9009316000000003,-2.7156909,-9.337159199999999
13278,13:40:36.604000,5.5614915,-17.067529699999998,-2.0278015,-4.3474593,-1.4243226,-9.901598
13279,13:40:36.614000,4.479359099999999,-17.407491699999998,-2.7580017999999997,-6.7823658,0.2323424,-9.506979
13280,13:40:36.623000,6.643623799999999,-19.8782024,-2.8801007000000003,-6.7823658,0.2323424,-9.506979
13281,13:40:36.635000,4.555970200000001,-16.0404625,-2.2815759,-6.0737629,0.5890873999999999,-8.6371078
13282,13:40:36.644000,1.019886,-13.809162099999998,-0.5051548,-5.708465599999999,0.7405819,-7.175919500000001
13283,13:40:36.655000,-0.7014709,-13.198665599999998,1.8985202,-5.5313148000000005,1.6190053999999998,-5.213822400000001
13284,13:40:36.664000,-1.2640841,-13.083749800000001,3.2535803,-5.1415834,1.8523557000000002,-4.2058954
13285,13:40:36.674000,-1.4197004999999998,-14.649490400000001,2.9184062,-5.1415834,1.8523557000000002,-4.2058954
13286,13:40:36.683000,-0.8187817,-15.425177599999998,0.7302001,-3.4299405,1.9415418999999998,-2.3390927
13287,13:40:36.693000,-0.6224656999999999,-13.0669909,-1.4077301000000002,-3.4299405,1.9415418999999998,-2.3390927
13288,13:40:36.702000,-0.8834224,-9.107152000000001,-2.7460313,-2.4269006,1.7900473999999997,-1.4704431
13289,13:40:36.712000,-1.2928133999999998,-6.334785500000001,-3.952657,-1.8282532999999999,1.7619476000000003,-0.9450995000000001
13290,13:40:36.721000,-1.9248554,-5.2023764,-5.3292642,-1.0329074,2.0209544,-0.3317913
13291,13:40:36.733000,-2.4204338,-5.6811967,-7.361853599999999,-0.4501424,1.9476504000000001,-0.085002
13292,13:40:36.741000,-1.0031273,-6.289297599999999,-6.8950043,-0.4501424,1.9476504000000001,-0.085002
13293,13:40:36.751000,2.7484252000000002,-6.2581739,-4.5679407,-0.2742134,0.8615331,-0.039798
13294,13:40:36.761000,3.5384779,-6.119316599999999,-7.366642,-0.2742134,0.8615331,-0.039798
13295,13:40:36.771000,3.5001721,-4.0125093000000005,-6.646017999999999,-0.5442156,0.5536573,-0.1363146
13296,13:40:36.781000,3.7443705,-1.623199,-4.6708865,-0.8301003,0.25066839999999996,0.0176233
13297,13:40:36.788000,3.5336897000000005,-0.7637175,-2.4132514,-1.712189,-0.022999000000000002,0.30961669999999997
13298,13:40:36.797000,2.6382967999999996,-1.6926279,-1.2162021,-2.0579383,0.0991739,0.3694814
13299,13:40:36.807000,0.9313045,-3.610301,-0.7876585,-2.3071711,0.12238679999999999,0.4378982
13300,13:40:36.818000,-0.8810283000000001,-5.0539427,-1.0246743,-2.3071711,0.12238679999999999,0.4378982
13301,13:40:36.830000,-2.0876541,-5.3364458,-1.8195150000000002,-2.3413796000000002,-0.0120035,0.5234193
13302,13:40:36.838000,-2.6861787,-5.647678900000001,-3.2583685,-2.1740026,-0.2673449,0.5588495
13303,13:40:36.848000,-2.5305624,-5.1568885,-3.4115907999999995,-2.1129162,-0.43716530000000003,0.542967
13304,13:40:36.857000,-1.0749503,-5.4393926,-2.1690536,-2.1776679,-0.46893029999999997,0.6480357
13305,13:40:36.866000,2.3605812000000004,-7.0194974000000006,-1.4675825,-2.3462665,0.16148210000000002,0.6272663
13306,13:40:36.879000,7.3067894,-7.290030499999999,-2.4539514,-2.3462665,0.16148210000000002,0.6272663
13307,13:40:36.886000,12.2410269,-5.7865367,-5.0946422,-2.5319693,0.8248812,0.759213
13308,13:40:36.897000,16.1314373,-3.4786254999999997,-10.493334800000001,-2.7017898999999996,1.7998214,0.7396654
13309,13:40:36.906000,25.602491399999998,-1.9966784,-16.7299614,-3.1342821,3.1217325000000002,0.4036898
13310,13:40:36.915000,37.391037,-4.3045893,-25.0231209,-3.6486301,4.655003099999999,-0.07034119999999999
13311,13:40:36.926000,43.5151405,-9.803834,-29.224763899999996,-4.2277298,6.386193799999999,-0.4527425
13312,13:40:36.935000,42.8687325,-14.7668009,-27.793092699999995,-4.994975599999999,8.9921427,0.8642818000000001
13313,13:40:36.950000,35.827686299999996,-15.631071100000002,-22.533258399999998,-5.079275099999999,9.0556717,2.0566897
13314,13:40:36.953000,26.165105800000003,-13.1914845,-17.7498474,-5.079275099999999,9.0556717,2.0566897
13315,13:40:36.967000,19.780044600000004,-9.885233900000001,-15.511365900000001,-5.5520844,7.8620429000000005,2.4769647
13316,13:40:36.973000,10.641769400000001,-7.412129400000001,-15.6214943,-5.5520844,7.8620429000000005,2.4769647
13317,13:40:36.983000,-0.6559831,-8.9299879,-10.5316401,-5.7280135,6.9970584,2.6895456
13318,13:40:36.996000,-9.7104654,-8.8174658,-13.574540099999998,-7.3834567,4.549934400000001,3.5349824
13319,13:40:37.002000,-13.6367865,-9.1143341,-9.619488699999998,-7.3834567,4.549934400000001,3.5349824
13320,13:40:37.015000,-12.7006941,-6.8255754,-9.8948097,-7.8379402,2.7307792,5.7670822
13321,13:40:37.022000,-0.1723751,-6.866274799999999,-10.416724199999999,-7.8379402,2.7307792,5.7670822
13322,13:40:37.031000,0.8499051,-8.2644291,-13.090931900000001,-7.466534599999999,2.2909565,5.7719688
13323,13:40:37.042000,2.4587395,-8.0609303,-13.1771202,-6.975399,1.8376949,5.5813794
13324,13:40:37.051000,5.7793546,-5.0587306,-13.7612801,-6.0713196,1.0838878,6.1042795
13325,13:40:37.063000,7.946013499999999,-1.3406953000000001,-14.5752726,-3.7011644999999995,-1.0052695,7.2001705000000005
13326,13:40:37.071000,9.068845699999999,1.3478776000000001,-16.5384331,-3.7011644999999995,-1.0052695,7.2001705000000005
13327,13:40:37.080000,8.62115,2.2648175,-17.8863125,-2.3218319,-2.3247373,6.920394900000001
13328,13:40:37.090000,7.7520914,1.7716331000000003,-18.307674399999996,-2.3218319,-2.3247373,6.920394900000001
13329,13:40:37.099000,6.3587264999999995,1.5537702,-18.6117249,-2.0102908999999998,-2.9392672,6.490346
13330,13:40:37.112000,5.147312599999999,1.1898671,-18.5135651,-1.3200138000000001,-4.240408900000001,5.5508361
13331,13:40:37.119000,4.7905917,1.2736604999999999,-17.6492958,-1.3200138000000001,-4.240408900000001,5.5508361
13332,13:40:37.129000,4.242342900000001,2.3869164,-16.5934982,-0.9143995999999999,-5.590419799999999,4.665082
13333,13:40:37.138000,4.213614,3.0045941000000003,-15.9973679,-0.9143995999999999,-5.590419799999999,4.665082
13334,13:40:37.148000,4.5846992,2.4563452999999997,-15.2384386,-0.5759805,-6.834140299999999,3.8514104
13335,13:40:37.167000,6.1815629,1.9966784,-13.4261065,-0.5759805,-6.834140299999999,3.8514104
13336,13:40:37.179000,7.9891076000000005,3.9981451,-11.5946198,0.4343897,-7.6404819,2.7909491
13337,13:40:37.186000,8.087266,4.8073505999999995,-8.348222699999999,0.4343897,-7.6404819,2.7909491
13338,13:40:37.197000,7.5749283,2.4204338,-5.6668315,1.2541701,-7.2226505,2.1837497000000003
13339,13:40:37.206000,6.782482099999999,-3.1673927,-5.757807700000001,1.2541701,-7.2226505,2.1837497000000003
13340,13:40:37.216000,6.1025577,-6.5023718,-6.6699591,1.9126823,-7.297175900000001,2.5649292
13341,13:40:37.230000,7.292425200000001,-8.0848713,-8.2763996,5.0574141,-8.2977724,3.3834879
13342,13:40:37.234000,9.076027900000001,-7.5102877999999995,-9.7272234,5.0574141,-8.2977724,3.3834879
13343,13:40:37.248000,8.2644291,-5.7314725,-11.9633112,8.4672613,-8.151164999999999,3.7365677
13344,13:40:37.255000,6.8447285,-4.5679407,-15.2719564,8.4672613,-8.151164999999999,3.7365677
13345,13:40:37.264000,3.9454749,-4.2040377,-17.0986538,9.3078108,-7.688129400000001,3.2442107000000004
13346,13:40:37.273000,-1.1922611,-2.4850745,-17.177658100000002,9.9626579,-7.149346799999999,1.9675035
13347,13:40:37.282000,-4.1944609,-0.1867397,-12.901798199999998,9.9308929,-6.2391582,-0.22916599999999998
